,version,pid,trial,subtrial,estimate,condition,confidence,correct,stimulus,rt,feedback,diff,diff_abs,diff_log,diff_avg,diff_abs_avg,diff_log_avg,rt_avg,pid_priv,bdi_score,bdi_group_num,bdi_group,Sex,age
0,1,5ace0a3ebf2ab00001aa90ab,1,1,16.0,neut,70.0,21.0,stimulus-21-6.png,2688.429999980144,70.0,-5.0,5.0,-0.2719337154836418,-5.0,5.0,-0.177453274705268,3143.678333319258,633680,1.0,1,minimal,Male,23
1,1,5ace0a3ebf2ab00001aa90ab,1,2,19.0,neut,70.0,21.0,stimulus-21-0.png,3272.4750000052154,70.0,-2.0,2.0,-0.1000834585569827,-5.0,5.0,-0.177453274705268,3143.678333319258,633680,1.0,1,minimal,Male,23
2,1,5ace0a3ebf2ab00001aa90ab,1,3,46.0,neut,70.0,54.0,stimulus-54-3.png,3470.1299999724138,70.0,-8.0,8.0,-0.1603426500751794,-5.0,5.0,-0.177453274705268,3143.678333319258,633680,1.0,1,minimal,Male,23
3,1,5ace0a3ebf2ab00001aa90ab,2,1,39.0,pos,61.0,54.0,stimulus-54-1.png,2990.2149999979883,82.0,-15.0,15.0,-0.3254224004346282,-5.333333333333333,6.666666666666667,-0.1295337673520533,3169.480000001689,633680,1.0,1,minimal,Male,23
4,1,5ace0a3ebf2ab00001aa90ab,2,2,18.0,pos,61.0,21.0,stimulus-21-6.png,3803.650000016205,82.0,-3.0,3.0,-0.1541506798272585,-5.333333333333333,6.666666666666667,-0.1295337673520533,3169.480000001689,633680,1.0,1,minimal,Male,23
5,1,5ace0a3ebf2ab00001aa90ab,2,3,23.0,pos,61.0,21.0,stimulus-21-4.png,2714.574999990873,82.0,2.0,2.0,0.0909717782057266,-5.333333333333333,6.666666666666667,-0.1295337673520533,3169.480000001689,633680,1.0,1,minimal,Male,23
6,1,5ace0a3ebf2ab00001aa90ab,3,1,42.0,neg,62.0,54.0,stimulus-54-6.png,3312.7949999761768,44.0,-12.0,12.0,-0.2513144282809061,-22.666666666666668,22.666666666666668,-0.3393546037385047,3671.566666666573,633680,1.0,1,minimal,Male,23
7,1,5ace0a3ebf2ab00001aa90ab,3,2,44.0,neg,62.0,54.0,stimulus-54-2.png,4504.279999993742,44.0,-10.0,10.0,-0.2047944126460135,-22.666666666666668,22.666666666666668,-0.3393546037385047,3671.566666666573,633680,1.0,1,minimal,Male,23
8,1,5ace0a3ebf2ab00001aa90ab,3,3,61.0,neg,62.0,107.0,stimulus-107-1.png,3197.6250000298023,44.0,-46.0,46.0,-0.5619549702885944,-22.666666666666668,22.666666666666668,-0.3393546037385047,3671.566666666573,633680,1.0,1,minimal,Male,23
9,1,5ace0a3ebf2ab00001aa90ab,4,1,38.0,pos,70.0,54.0,stimulus-54-2.png,4061.97500001872,91.0,-16.0,16.0,-0.3513978868378888,-25.0,25.0,-0.428097365461858,3321.6433333582245,633680,1.0,1,minimal,Male,23
10,1,5ace0a3ebf2ab00001aa90ab,4,2,52.0,pos,70.0,107.0,stimulus-107-2.png,2545.290000038221,91.0,-55.0,55.0,-0.7215851158804782,-25.0,25.0,-0.428097365461858,3321.6433333582245,633680,1.0,1,minimal,Male,23
11,1,5ace0a3ebf2ab00001aa90ab,4,3,17.0,pos,70.0,21.0,stimulus-21-0.png,3357.6650000177324,91.0,-4.0,4.0,-0.2113090936672068,-25.0,25.0,-0.428097365461858,3321.6433333582245,633680,1.0,1,minimal,Male,23
12,1,5ace0a3ebf2ab00001aa90ab,5,1,71.0,neut,44.0,107.0,stimulus-107-6.png,4912.460000021383,42.0,-36.0,36.0,-0.4101489574205903,-39.0,39.0,-0.4539705504242193,4540.365000003173,633680,1.0,1,minimal,Male,23
13,1,5ace0a3ebf2ab00001aa90ab,5,2,68.0,neut,44.0,107.0,stimulus-107-5.png,4781.674999976531,42.0,-39.0,39.0,-0.4533211292857988,-39.0,39.0,-0.4539705504242193,4540.365000003173,633680,1.0,1,minimal,Male,23
14,1,5ace0a3ebf2ab00001aa90ab,5,3,65.0,neut,44.0,107.0,stimulus-107-9.png,3926.960000011604,42.0,-42.0,42.0,-0.498441564566269,-39.0,39.0,-0.4539705504242193,4540.365000003173,633680,1.0,1,minimal,Male,23
15,1,5ace0a3ebf2ab00001aa90ab,6,1,40.0,neg,57.0,54.0,stimulus-54-9.png,6469.685000018217,39.0,-14.0,14.0,-0.3001045924503382,-30.33333333333333,30.33333333333333,-0.3975247999779416,5190.086666669231,633680,1.0,1,minimal,Male,23
16,1,5ace0a3ebf2ab00001aa90ab,6,2,67.0,neg,57.0,107.0,stimulus-107-6.png,3741.260000038892,39.0,-40.0,40.0,-0.46813621507094,-30.33333333333333,30.33333333333333,-0.3975247999779416,5190.086666669231,633680,1.0,1,minimal,Male,23
17,1,5ace0a3ebf2ab00001aa90ab,6,3,70.0,neg,57.0,107.0,stimulus-107-0.png,5359.314999950584,39.0,-37.0,37.0,-0.4243335924125464,-30.33333333333333,30.33333333333333,-0.3975247999779416,5190.086666669231,633680,1.0,1,minimal,Male,23
18,1,5ace0a3ebf2ab00001aa90ab,7,1,36.0,neg,68.0,54.0,stimulus-54-0.png,6205.860000045504,48.0,-18.0,18.0,-0.4054651081081646,-25.0,25.0,-0.4090445608485418,5356.070000018614,633680,1.0,1,minimal,Male,23
19,1,5ace0a3ebf2ab00001aa90ab,7,2,52.0,neg,68.0,107.0,stimulus-107-0.png,4176.704999990761,48.0,-55.0,55.0,-0.7215851158804782,-25.0,25.0,-0.4090445608485418,5356.070000018614,633680,1.0,1,minimal,Male,23
20,1,5ace0a3ebf2ab00001aa90ab,7,3,19.0,neg,68.0,21.0,stimulus-21-5.png,5685.645000019576,48.0,-2.0,2.0,-0.1000834585569827,-25.0,25.0,-0.4090445608485418,5356.070000018614,633680,1.0,1,minimal,Male,23
21,1,5ace0a3ebf2ab00001aa90ab,8,1,18.0,neg,61.0,21.0,stimulus-21-3.png,5422.729999991134,41.0,-3.0,3.0,-0.1541506798272585,-25.33333333333333,25.33333333333333,-0.330350212051978,4524.393333335563,633680,1.0,1,minimal,Male,23
22,1,5ace0a3ebf2ab00001aa90ab,8,2,74.0,neg,61.0,107.0,stimulus-107-4.png,3197.7999999653557,41.0,-33.0,33.0,-0.3687637412577356,-25.33333333333333,25.33333333333333,-0.330350212051978,4524.393333335563,633680,1.0,1,minimal,Male,23
23,1,5ace0a3ebf2ab00001aa90ab,8,3,67.0,neg,61.0,107.0,stimulus-107-2.png,4952.650000050197,41.0,-40.0,40.0,-0.46813621507094,-25.33333333333333,25.33333333333333,-0.330350212051978,4524.393333335563,633680,1.0,1,minimal,Male,23
24,1,5ace0a3ebf2ab00001aa90ab,9,1,79.0,pos,76.0,107.0,stimulus-107-3.png,6073.819999990519,97.0,-28.0,28.0,-0.3033809819948843,-17.333333333333332,17.333333333333332,-0.3257711992034013,4519.931666669436,633680,1.0,1,minimal,Male,23
25,1,5ace0a3ebf2ab00001aa90ab,9,2,17.0,pos,76.0,21.0,stimulus-21-5.png,2996.129999984987,97.0,-4.0,4.0,-0.2113090936672068,-17.333333333333332,17.333333333333332,-0.3257711992034013,4519.931666669436,633680,1.0,1,minimal,Male,23
26,1,5ace0a3ebf2ab00001aa90ab,9,3,34.0,pos,76.0,54.0,stimulus-54-1.png,4489.845000032801,97.0,-20.0,20.0,-0.4626235219481129,-17.333333333333332,17.333333333333332,-0.3257711992034013,4519.931666669436,633680,1.0,1,minimal,Male,23
27,1,5ace0a3ebf2ab00001aa90ab,10,1,38.0,neg,64.0,54.0,stimulus-54-0.png,3752.659999998287,44.0,-16.0,16.0,-0.3513978868378888,-8.666666666666666,8.666666666666666,-0.1853974331613007,4240.98833334089,633680,1.0,1,minimal,Male,23
28,1,5ace0a3ebf2ab00001aa90ab,10,2,44.0,neg,64.0,54.0,stimulus-54-5.png,5611.975000007078,44.0,-10.0,10.0,-0.2047944126460135,-8.666666666666666,8.666666666666666,-0.1853974331613007,4240.98833334089,633680,1.0,1,minimal,Male,23
29,1,5ace0a3ebf2ab00001aa90ab,10,3,21.0,neg,64.0,21.0,stimulus-21-9.png,3358.330000017304,44.0,0.0,0.0,0.0,-8.666666666666666,8.666666666666666,-0.1853974331613007,4240.98833334089,633680,1.0,1,minimal,Male,23
30,1,5ace0a3ebf2ab00001aa90ab,11,1,51.0,neut,42.0,54.0,stimulus-54-5.png,2999.1799999843347,41.0,-3.0,3.0,-0.0571584138399487,-0.3333333333333333,1.6666666666666667,-0.0069302565563578,3808.581666671671,633680,1.0,1,minimal,Male,23
31,1,5ace0a3ebf2ab00001aa90ab,11,2,56.0,neut,42.0,54.0,stimulus-54-6.png,3504.6350000193347,41.0,2.0,2.0,0.0363676441708751,-0.3333333333333333,1.6666666666666667,-0.0069302565563578,3808.581666671671,633680,1.0,1,minimal,Male,23
32,1,5ace0a3ebf2ab00001aa90ab,11,3,54.0,neut,42.0,54.0,stimulus-54-4.png,4921.930000011344,41.0,0.0,0.0,0.0,-0.3333333333333333,1.6666666666666667,-0.0069302565563578,3808.581666671671,633680,1.0,1,minimal,Male,23
33,1,5ace0a3ebf2ab00001aa90ab,12,1,81.0,neut,66.0,107.0,stimulus-107-3.png,4258.239999995567,66.0,-26.0,26.0,-0.2783796797894666,-13.666666666666666,13.666666666666666,-0.217958372735472,4018.2766666597063,633680,1.0,1,minimal,Male,23
34,1,5ace0a3ebf2ab00001aa90ab,12,2,19.0,neut,66.0,21.0,stimulus-21-2.png,3320.1549999648705,66.0,-2.0,2.0,-0.1000834585569827,-13.666666666666666,13.666666666666666,-0.217958372735472,4018.2766666597063,633680,1.0,1,minimal,Male,23
35,1,5ace0a3ebf2ab00001aa90ab,12,3,41.0,neut,66.0,54.0,stimulus-54-4.png,4476.435000018682,66.0,-13.0,13.0,-0.2754119798599665,-13.666666666666666,13.666666666666666,-0.217958372735472,4018.2766666597063,633680,1.0,1,minimal,Male,23
36,1,5ace0a3ebf2ab00001aa90ab,13,1,21.0,pos,76.0,21.0,stimulus-21-4.png,4130.920000025071,97.0,0.0,0.0,0.0,-4.333333333333333,4.333333333333333,-0.1092891298092316,4432.348333337965,633680,1.0,1,minimal,Male,23
37,1,5ace0a3ebf2ab00001aa90ab,13,2,19.0,pos,76.0,21.0,stimulus-21-1.png,4408.950000011828,97.0,-2.0,2.0,-0.1000834585569827,-4.333333333333333,4.333333333333333,-0.1092891298092316,4432.348333337965,633680,1.0,1,minimal,Male,23
38,1,5ace0a3ebf2ab00001aa90ab,13,3,43.0,pos,76.0,54.0,stimulus-54-3.png,4757.174999976995,97.0,-11.0,11.0,-0.2277839308707121,-4.333333333333333,4.333333333333333,-0.1092891298092316,4432.348333337965,633680,1.0,1,minimal,Male,23
39,1,5ace0a3ebf2ab00001aa90ab,14,1,79.0,neut,64.0,107.0,stimulus-107-4.png,4699.2600000230605,62.0,-28.0,28.0,-0.3033809819948843,-20.0,20.0,-0.2314222134466304,4646.950000004533,633680,1.0,1,minimal,Male,23
40,1,5ace0a3ebf2ab00001aa90ab,14,2,20.0,neut,64.0,21.0,stimulus-21-1.png,5148.574999999255,62.0,-1.0,1.0,-0.0487901641694321,-20.0,20.0,-0.2314222134466304,4646.950000004533,633680,1.0,1,minimal,Male,23
41,1,5ace0a3ebf2ab00001aa90ab,14,3,76.0,neut,64.0,107.0,stimulus-107-5.png,4093.014999991283,62.0,-31.0,31.0,-0.3420954941755747,-20.0,20.0,-0.2314222134466304,4646.950000004533,633680,1.0,1,minimal,Male,23
42,1,5ace0a3ebf2ab00001aa90ab,15,1,68.0,pos,74.0,107.0,stimulus-107-1.png,3903.9450000273055,93.0,-39.0,39.0,-0.4533211292857988,-13.333333333333334,14.0,-0.1689615240692961,3879.1483333528354,633680,1.0,1,minimal,Male,23
43,1,5ace0a3ebf2ab00001aa90ab,15,2,19.0,pos,74.0,21.0,stimulus-21-2.png,4524.230000039097,93.0,-2.0,2.0,-0.1000834585569827,-13.333333333333334,14.0,-0.1689615240692961,3879.1483333528354,633680,1.0,1,minimal,Male,23
44,1,5ace0a3ebf2ab00001aa90ab,15,3,22.0,pos,74.0,21.0,stimulus-21-3.png,3209.269999992103,93.0,1.0,1.0,0.046520015634893,-13.333333333333334,14.0,-0.1689615240692961,3879.1483333528354,633680,1.0,1,minimal,Male,23
45,1,5b0dda5f176cbc00012d3df6,1,1,20.0,neut,82.0,21.0,stimulus-21-6.png,3452.0,82.0,-1.0,1.0,-0.0487901641694321,-0.3333333333333333,1.0,-0.0264103965568892,2098.6666666666665,633682,8.0,2,mild,Female,27
46,1,5b0dda5f176cbc00012d3df6,1,2,20.0,neut,82.0,21.0,stimulus-21-0.png,818.0,82.0,-1.0,1.0,-0.0487901641694321,-0.3333333333333333,1.0,-0.0264103965568892,2098.6666666666665,633682,8.0,2,mild,Female,27
47,1,5b0dda5f176cbc00012d3df6,1,3,55.0,neut,82.0,54.0,stimulus-54-3.png,2026.0,82.0,1.0,1.0,0.0183491386681966,-0.3333333333333333,1.0,-0.0264103965568892,2098.6666666666665,633682,8.0,2,mild,Female,27
48,1,5b0dda5f176cbc00012d3df6,2,1,45.0,pos,75.0,54.0,stimulus-54-1.png,2256.0,97.0,-9.0,9.0,-0.1823215567939549,-0.3333333333333333,5.666666666666667,0.0554617391652,2084.0,633682,8.0,2,mild,Female,27
49,1,5b0dda5f176cbc00012d3df6,2,2,25.0,pos,75.0,21.0,stimulus-21-6.png,2019.0,97.0,4.0,4.0,0.1743533871447775,-0.3333333333333333,5.666666666666667,0.0554617391652,2084.0,633682,8.0,2,mild,Female,27
50,1,5b0dda5f176cbc00012d3df6,2,3,25.0,pos,75.0,21.0,stimulus-21-4.png,1977.0,97.0,4.0,4.0,0.1743533871447775,-0.3333333333333333,5.666666666666667,0.0554617391652,2084.0,633682,8.0,2,mild,Female,27
51,1,5b0dda5f176cbc00012d3df6,3,1,60.0,neg,35.0,54.0,stimulus-54-6.png,3058.0,16.0,6.0,6.0,0.1053605156578258,1.6666666666666667,6.333333333333333,0.0476874609472792,2940.6666666666665,633682,8.0,2,mild,Female,27
52,1,5b0dda5f176cbc00012d3df6,3,2,60.0,neg,35.0,54.0,stimulus-54-2.png,2268.0,16.0,6.0,6.0,0.1053605156578258,1.6666666666666667,6.333333333333333,0.0476874609472792,2940.6666666666665,633682,8.0,2,mild,Female,27
53,1,5b0dda5f176cbc00012d3df6,3,3,100.0,neg,35.0,107.0,stimulus-107-1.png,3496.0,16.0,-7.0,7.0,-0.0676586484738139,1.6666666666666667,6.333333333333333,0.0476874609472792,2940.6666666666665,633682,8.0,2,mild,Female,27
54,1,5b0dda5f176cbc00012d3df6,4,1,40.0,pos,61.0,54.0,stimulus-54-2.png,2090.0,82.0,-14.0,14.0,-0.3001045924503382,2.6666666666666665,12.666666666666666,-0.051396380208698,3044.6666666666665,633682,8.0,2,mild,Female,27
55,1,5b0dda5f176cbc00012d3df6,4,2,130.0,pos,61.0,107.0,stimulus-107-2.png,3622.0,82.0,23.0,23.0,0.1947056159936764,2.6666666666666665,12.666666666666666,-0.051396380208698,3044.6666666666665,633682,8.0,2,mild,Female,27
56,1,5b0dda5f176cbc00012d3df6,4,3,20.0,pos,61.0,21.0,stimulus-21-0.png,3422.0,82.0,-1.0,1.0,-0.0487901641694321,2.6666666666666665,12.666666666666666,-0.051396380208698,3044.6666666666665,633682,8.0,2,mild,Female,27
57,1,5b0dda5f176cbc00012d3df6,5,1,100.0,neut,50.0,107.0,stimulus-107-6.png,3807.0,51.0,-7.0,7.0,-0.0676586484738139,-13.666666666666666,13.666666666666666,-0.1389293897689227,2579.0,633682,8.0,2,mild,Female,27
58,1,5b0dda5f176cbc00012d3df6,5,2,95.0,neut,50.0,107.0,stimulus-107-5.png,2016.0,51.0,-12.0,12.0,-0.118951942861365,-13.666666666666666,13.666666666666666,-0.1389293897689227,2579.0,633682,8.0,2,mild,Female,27
59,1,5b0dda5f176cbc00012d3df6,5,3,85.0,neut,50.0,107.0,stimulus-107-9.png,1914.0,51.0,-22.0,22.0,-0.2301775779715891,-13.666666666666666,13.666666666666666,-0.1389293897689227,2579.0,633682,8.0,2,mild,Female,27
60,1,5b0dda5f176cbc00012d3df6,6,1,35.0,neg,65.0,54.0,stimulus-54-9.png,1695.0,43.0,-19.0,19.0,-0.433635985074861,-27.666666666666668,27.666666666666668,-0.3829239257584773,1923.0,633682,8.0,2,mild,Female,27
61,1,5b0dda5f176cbc00012d3df6,6,2,70.0,neg,65.0,107.0,stimulus-107-6.png,1854.0,43.0,-37.0,37.0,-0.4243335924125464,-27.666666666666668,27.666666666666668,-0.3829239257584773,1923.0,633682,8.0,2,mild,Female,27
62,1,5b0dda5f176cbc00012d3df6,6,3,80.0,neg,65.0,107.0,stimulus-107-0.png,2220.0,43.0,-27.0,27.0,-0.2908021997880246,-27.666666666666668,27.666666666666668,-0.3829239257584773,1923.0,633682,8.0,2,mild,Female,27
63,1,5b0dda5f176cbc00012d3df6,7,1,40.0,neg,60.0,54.0,stimulus-54-0.png,2370.0,40.0,-14.0,14.0,-0.3001045924503382,-4.0,6.0,-0.1070810750964198,2660.6666666666665,633682,8.0,2,mild,Female,27
64,1,5b0dda5f176cbc00012d3df6,7,2,110.0,neg,60.0,107.0,stimulus-107-0.png,1846.0,40.0,3.0,3.0,0.0276515313305107,-4.0,6.0,-0.1070810750964198,2660.6666666666665,633682,8.0,2,mild,Female,27
65,1,5b0dda5f176cbc00012d3df6,7,3,20.0,neg,60.0,21.0,stimulus-21-5.png,3766.0,40.0,-1.0,1.0,-0.0487901641694321,-4.0,6.0,-0.1070810750964198,2660.6666666666665,633682,8.0,2,mild,Female,27
66,1,5b0dda5f176cbc00012d3df6,8,1,20.0,neg,26.0,21.0,stimulus-21-3.png,3247.0,4.0,-1.0,1.0,-0.0487901641694321,-10.0,10.0,-0.1135870903874793,4626.666666666667,633682,8.0,2,mild,Female,27
67,1,5b0dda5f176cbc00012d3df6,8,2,90.0,neg,26.0,107.0,stimulus-107-4.png,7215.0,4.0,-17.0,17.0,-0.1730191641316407,-10.0,10.0,-0.1135870903874793,4626.666666666667,633682,8.0,2,mild,Female,27
68,1,5b0dda5f176cbc00012d3df6,8,3,95.0,neg,26.0,107.0,stimulus-107-2.png,3418.0,4.0,-12.0,12.0,-0.118951942861365,-10.0,10.0,-0.1135870903874793,4626.666666666667,633682,8.0,2,mild,Female,27
69,1,5b0dda5f176cbc00012d3df6,9,1,120.0,pos,75.0,107.0,stimulus-107-3.png,4391.0,97.0,13.0,13.0,0.11466290832014,2.6666666666666665,6.0,-0.0036960989951402,3030.333333333333,633682,8.0,2,mild,Female,27
70,1,5b0dda5f176cbc00012d3df6,9,2,20.0,pos,75.0,21.0,stimulus-21-5.png,1900.0,97.0,-1.0,1.0,-0.0487901641694321,2.6666666666666665,6.0,-0.0036960989951402,3030.333333333333,633682,8.0,2,mild,Female,27
71,1,5b0dda5f176cbc00012d3df6,9,3,50.0,pos,75.0,54.0,stimulus-54-1.png,2800.0,97.0,-4.0,4.0,-0.0769610411361285,2.6666666666666665,6.0,-0.0036960989951402,3030.333333333333,633682,8.0,2,mild,Female,27
72,1,5b0dda5f176cbc00012d3df6,10,1,35.0,neg,66.0,54.0,stimulus-54-0.png,2573.0,48.0,-19.0,19.0,-0.433635985074861,-9.666666666666666,9.666666666666666,-0.221582568679416,2755.0,633682,8.0,2,mild,Female,27
73,1,5b0dda5f176cbc00012d3df6,10,2,45.0,neg,66.0,54.0,stimulus-54-5.png,3273.0,48.0,-9.0,9.0,-0.1823215567939549,-9.666666666666666,9.666666666666666,-0.221582568679416,2755.0,633682,8.0,2,mild,Female,27
74,1,5b0dda5f176cbc00012d3df6,10,3,20.0,neg,66.0,21.0,stimulus-21-9.png,2419.0,48.0,-1.0,1.0,-0.0487901641694321,-9.666666666666666,9.666666666666666,-0.221582568679416,2755.0,633682,8.0,2,mild,Female,27
75,1,5b0dda5f176cbc00012d3df6,11,1,40.0,neut,38.0,54.0,stimulus-54-5.png,2533.0,37.0,-14.0,14.0,-0.3001045924503382,-14.0,14.0,-0.3001045924503382,2502.333333333333,633682,8.0,2,mild,Female,27
76,1,5b0dda5f176cbc00012d3df6,11,2,40.0,neut,38.0,54.0,stimulus-54-6.png,1902.0,37.0,-14.0,14.0,-0.3001045924503382,-14.0,14.0,-0.3001045924503382,2502.333333333333,633682,8.0,2,mild,Female,27
77,1,5b0dda5f176cbc00012d3df6,11,3,40.0,neut,38.0,54.0,stimulus-54-4.png,3072.0,37.0,-14.0,14.0,-0.3001045924503382,-14.0,14.0,-0.3001045924503382,2502.333333333333,633682,8.0,2,mild,Female,27
78,1,5b0dda5f176cbc00012d3df6,12,1,80.0,neut,59.0,107.0,stimulus-107-3.png,2688.0,57.0,-27.0,27.0,-0.2908021997880246,-14.0,14.0,-0.2132323188025983,3038.0,633682,8.0,2,mild,Female,27
79,1,5b0dda5f176cbc00012d3df6,12,2,20.0,neut,59.0,21.0,stimulus-21-2.png,2187.0,57.0,-1.0,1.0,-0.0487901641694321,-14.0,14.0,-0.2132323188025983,3038.0,633682,8.0,2,mild,Female,27
80,1,5b0dda5f176cbc00012d3df6,12,3,40.0,neut,59.0,54.0,stimulus-54-4.png,4239.0,57.0,-14.0,14.0,-0.3001045924503382,-14.0,14.0,-0.2132323188025983,3038.0,633682,8.0,2,mild,Female,27
81,1,5b0dda5f176cbc00012d3df6,13,1,23.0,pos,78.0,21.0,stimulus-21-4.png,4534.0,98.0,2.0,2.0,0.0909717782057266,1.6666666666666667,1.6666666666666667,0.0667642316932166,4221.0,633682,8.0,2,mild,Female,27
82,1,5b0dda5f176cbc00012d3df6,13,2,23.0,pos,78.0,21.0,stimulus-21-1.png,3786.0,98.0,2.0,2.0,0.0909717782057266,1.6666666666666667,1.6666666666666667,0.0667642316932166,4221.0,633682,8.0,2,mild,Female,27
83,1,5b0dda5f176cbc00012d3df6,13,3,55.0,pos,78.0,54.0,stimulus-54-3.png,4343.0,98.0,1.0,1.0,0.0183491386681966,1.6666666666666667,1.6666666666666667,0.0667642316932166,4221.0,633682,8.0,2,mild,Female,27
84,1,5b0dda5f176cbc00012d3df6,14,1,90.0,neut,72.0,107.0,stimulus-107-4.png,2666.0,73.0,-17.0,17.0,-0.1730191641316407,-9.333333333333334,10.0,-0.0818170304527042,2775.0,633682,8.0,2,mild,Female,27
85,1,5b0dda5f176cbc00012d3df6,14,2,22.0,neut,72.0,21.0,stimulus-21-1.png,3245.0,73.0,1.0,1.0,0.046520015634893,-9.333333333333334,10.0,-0.0818170304527042,2775.0,633682,8.0,2,mild,Female,27
86,1,5b0dda5f176cbc00012d3df6,14,3,95.0,neut,72.0,107.0,stimulus-107-5.png,2414.0,73.0,-12.0,12.0,-0.118951942861365,-9.333333333333334,10.0,-0.0818170304527042,2775.0,633682,8.0,2,mild,Female,27
87,1,5b0dda5f176cbc00012d3df6,15,1,80.0,pos,90.0,107.0,stimulus-107-1.png,2286.0,100.0,-27.0,27.0,-0.2908021997880246,-6.333333333333333,11.666666666666666,0.0193015248338435,3209.0,633682,8.0,2,mild,Female,27
88,1,5b0dda5f176cbc00012d3df6,15,2,25.0,pos,90.0,21.0,stimulus-21-2.png,5248.0,100.0,4.0,4.0,0.1743533871447775,-6.333333333333333,11.666666666666666,0.0193015248338435,3209.0,633682,8.0,2,mild,Female,27
89,1,5b0dda5f176cbc00012d3df6,15,3,25.0,pos,90.0,21.0,stimulus-21-3.png,2093.0,100.0,4.0,4.0,0.1743533871447775,-6.333333333333333,11.666666666666666,0.0193015248338435,3209.0,633682,8.0,2,mild,Female,27
90,1,5c281bb85454860001dfe95f,1,1,22.0,neut,81.0,21.0,stimulus-21-6.png,2613.409999990836,81.0,1.0,1.0,0.046520015634893,1.3333333333333333,2.0,0.0673937565891726,2995.9133333371333,633683,1.0,1,minimal,Male,26
91,1,5c281bb85454860001dfe95f,1,2,25.0,neut,81.0,21.0,stimulus-21-0.png,3591.320000006817,81.0,4.0,4.0,0.1743533871447775,1.3333333333333333,2.0,0.0673937565891726,2995.9133333371333,633683,1.0,1,minimal,Male,26
92,1,5c281bb85454860001dfe95f,1,3,53.0,neut,81.0,54.0,stimulus-54-3.png,2783.0100000137463,81.0,-1.0,1.0,-0.0186921330121525,1.3333333333333333,2.0,0.0673937565891726,2995.9133333371333,633683,1.0,1,minimal,Male,26
93,1,5c281bb85454860001dfe95f,2,1,65.0,pos,88.0,54.0,stimulus-54-1.png,2866.915000020527,100.0,11.0,11.0,0.1854032233313622,6.333333333333333,6.333333333333333,0.1693922051981378,2866.7533333646134,633683,1.0,1,minimal,Male,26
94,1,5c281bb85454860001dfe95f,2,2,29.0,pos,88.0,21.0,stimulus-21-6.png,2953.0500000109896,100.0,8.0,8.0,0.3227733922630511,6.333333333333333,6.333333333333333,0.1693922051981378,2866.7533333646134,633683,1.0,1,minimal,Male,26
95,1,5c281bb85454860001dfe95f,2,3,21.0,pos,88.0,21.0,stimulus-21-4.png,2780.295000062324,100.0,0.0,0.0,0.0,6.333333333333333,6.333333333333333,0.1693922051981378,2866.7533333646134,633683,1.0,1,minimal,Male,26
96,1,5c281bb85454860001dfe95f,3,1,51.0,neg,84.0,54.0,stimulus-54-6.png,3636.234999983572,64.0,-3.0,3.0,-0.0571584138399487,-9.0,9.0,-0.1166047274257652,3574.6233333290243,633683,1.0,1,minimal,Male,26
97,1,5c281bb85454860001dfe95f,3,2,49.0,neg,84.0,54.0,stimulus-54-2.png,4606.385000050068,64.0,-5.0,5.0,-0.097163748453648,-9.0,9.0,-0.1166047274257652,3574.6233333290243,633683,1.0,1,minimal,Male,26
98,1,5c281bb85454860001dfe95f,3,3,88.0,neg,84.0,107.0,stimulus-107-1.png,2481.2499999534343,64.0,-19.0,19.0,-0.1954920199836989,-9.0,9.0,-0.1166047274257652,3574.6233333290243,633683,1.0,1,minimal,Male,26
99,1,5c281bb85454860001dfe95f,4,1,55.0,pos,68.0,54.0,stimulus-54-2.png,5292.5250000553215,88.0,1.0,1.0,0.0183491386681966,-8.0,13.333333333333334,-0.0164365032685394,4187.0683333836505,633683,1.0,1,minimal,Male,26
100,1,5c281bb85454860001dfe95f,4,2,75.0,pos,68.0,107.0,stimulus-107-2.png,3818.2350000133742,88.0,-32.0,32.0,-0.3553407209255956,-8.0,13.333333333333334,-0.0164365032685394,4187.0683333836505,633683,1.0,1,minimal,Male,26
101,1,5c281bb85454860001dfe95f,4,3,28.0,pos,68.0,21.0,stimulus-21-0.png,3450.445000082255,88.0,7.0,7.0,0.2876820724517808,-8.0,13.333333333333334,-0.0164365032685394,4187.0683333836505,633683,1.0,1,minimal,Male,26
102,1,5c281bb85454860001dfe95f,5,1,82.0,neut,81.0,107.0,stimulus-107-6.png,5792.825000011362,81.0,-25.0,25.0,-0.2661095871976524,-29.33333333333333,29.33333333333333,-0.3212989136878699,4373.898333326603,633683,1.0,1,minimal,Male,26
103,1,5c281bb85454860001dfe95f,5,2,74.0,neut,81.0,107.0,stimulus-107-5.png,3897.675000014715,81.0,-33.0,33.0,-0.3687637412577356,-29.33333333333333,29.33333333333333,-0.3212989136878699,4373.898333326603,633683,1.0,1,minimal,Male,26
104,1,5c281bb85454860001dfe95f,5,3,77.0,neut,81.0,107.0,stimulus-107-9.png,3431.1949999537323,81.0,-30.0,30.0,-0.3290234126082216,-29.33333333333333,29.33333333333333,-0.3212989136878699,4373.898333326603,633683,1.0,1,minimal,Male,26
105,1,5c281bb85454860001dfe95f,6,1,49.0,neg,78.0,54.0,stimulus-54-9.png,5048.750000074506,59.0,-5.0,5.0,-0.097163748453648,-32.333333333333336,32.333333333333336,-0.4084609598824242,4778.528333331148,633683,1.0,1,minimal,Male,26
106,1,5c281bb85454860001dfe95f,6,2,57.0,neg,78.0,107.0,stimulus-107-6.png,4145.034999935888,59.0,-50.0,50.0,-0.6297775666273555,-32.333333333333336,32.333333333333336,-0.4084609598824242,4778.528333331148,633683,1.0,1,minimal,Male,26
107,1,5c281bb85454860001dfe95f,6,3,65.0,neg,78.0,107.0,stimulus-107-0.png,5141.79999998305,59.0,-42.0,42.0,-0.498441564566269,-32.333333333333336,32.333333333333336,-0.4084609598824242,4778.528333331148,633683,1.0,1,minimal,Male,26
108,1,5c281bb85454860001dfe95f,7,1,69.0,neg,71.0,54.0,stimulus-54-0.png,3907.160000060685,52.0,15.0,15.0,0.2451224580329851,-4.666666666666667,14.666666666666666,-0.0236658499131096,3233.8966667108857,633683,1.0,1,minimal,Male,26
109,1,5c281bb85454860001dfe95f,7,2,78.0,neg,71.0,107.0,stimulus-107-0.png,3200.595000060275,52.0,-29.0,29.0,-0.3161200077723141,-4.666666666666667,14.666666666666666,-0.0236658499131096,3233.8966667108857,633683,1.0,1,minimal,Male,26
110,1,5c281bb85454860001dfe95f,7,3,21.0,neg,71.0,21.0,stimulus-21-5.png,2593.935000011697,52.0,0.0,0.0,0.0,-4.666666666666667,14.666666666666666,-0.0236658499131096,3233.8966667108857,633683,1.0,1,minimal,Male,26
111,1,5c281bb85454860001dfe95f,8,1,23.0,neg,85.0,21.0,stimulus-21-3.png,2942.6700000185524,67.0,2.0,2.0,0.0909717782057266,-0.6666666666666666,4.0,0.0169882203541411,3093.9500000483044,633683,1.0,1,minimal,Male,26
112,1,5c281bb85454860001dfe95f,8,2,100.0,neg,85.0,107.0,stimulus-107-4.png,3258.4150000475347,67.0,-7.0,7.0,-0.0676586484738139,-0.6666666666666666,4.0,0.0169882203541411,3093.9500000483044,633683,1.0,1,minimal,Male,26
113,1,5c281bb85454860001dfe95f,8,3,110.0,neg,85.0,107.0,stimulus-107-2.png,3080.7650000788267,67.0,3.0,3.0,0.0276515313305107,-0.6666666666666666,4.0,0.0169882203541411,3093.9500000483044,633683,1.0,1,minimal,Male,26
114,1,5c281bb85454860001dfe95f,9,1,87.0,pos,70.0,107.0,stimulus-107-3.png,3004.9649999709804,91.0,-20.0,20.0,-0.206920715807322,-6.0,7.333333333333333,-0.0568510238788156,2955.078333344621,633683,1.0,1,minimal,Male,26
115,1,5c281bb85454860001dfe95f,9,2,21.0,pos,70.0,21.0,stimulus-21-5.png,2335.190000012517,91.0,0.0,0.0,0.0,-6.0,7.333333333333333,-0.0568510238788156,2955.078333344621,633683,1.0,1,minimal,Male,26
116,1,5c281bb85454860001dfe95f,9,3,56.0,pos,70.0,54.0,stimulus-54-1.png,3525.0800000503664,91.0,2.0,2.0,0.0363676441708751,-6.0,7.333333333333333,-0.0568510238788156,2955.078333344621,633683,1.0,1,minimal,Male,26
117,1,5c281bb85454860001dfe95f,10,1,53.0,neg,89.0,54.0,stimulus-54-0.png,3325.309999985621,70.0,-1.0,1.0,-0.0186921330121525,3.333333333333333,4.0,0.1070585642033995,4995.288333351103,633683,1.0,1,minimal,Male,26
118,1,5c281bb85454860001dfe95f,10,2,59.0,neg,89.0,54.0,stimulus-54-5.png,8520.08000004571,70.0,5.0,5.0,0.0885533973414451,3.333333333333333,4.0,0.1070585642033995,4995.288333351103,633683,1.0,1,minimal,Male,26
119,1,5c281bb85454860001dfe95f,10,3,27.0,neg,89.0,21.0,stimulus-21-9.png,3140.4750000219788,70.0,6.0,6.0,0.2513144282809061,3.333333333333333,4.0,0.1070585642033995,4995.288333351103,633683,1.0,1,minimal,Male,26
120,1,5c281bb85454860001dfe95f,11,1,46.0,neut,64.0,54.0,stimulus-54-5.png,5083.184999995865,62.0,-8.0,8.0,-0.1603426500751794,-3.333333333333333,6.0,-0.068888907249806,4490.115000012641,633683,1.0,1,minimal,Male,26
121,1,5c281bb85454860001dfe95f,11,2,58.0,neut,64.0,54.0,stimulus-54-6.png,4139.569999999367,62.0,4.0,4.0,0.0714589639821445,-3.333333333333333,6.0,-0.068888907249806,4490.115000012641,633683,1.0,1,minimal,Male,26
122,1,5c281bb85454860001dfe95f,11,3,48.0,neut,64.0,54.0,stimulus-54-4.png,4247.590000042692,62.0,-6.0,6.0,-0.1177830356563833,-3.333333333333333,6.0,-0.068888907249806,4490.115000012641,633683,1.0,1,minimal,Male,26
123,1,5c281bb85454860001dfe95f,12,1,78.0,neut,86.0,107.0,stimulus-107-3.png,4914.229999994859,85.0,-29.0,29.0,-0.3161200077723141,-11.0,11.0,-0.1310270163028142,3896.719999960624,633683,1.0,1,minimal,Male,26
124,1,5c281bb85454860001dfe95f,12,2,21.0,neut,86.0,21.0,stimulus-21-2.png,2831.6999999806285,85.0,0.0,0.0,0.0,-11.0,11.0,-0.1310270163028142,3896.719999960624,633683,1.0,1,minimal,Male,26
125,1,5c281bb85454860001dfe95f,12,3,50.0,neut,86.0,54.0,stimulus-54-4.png,3944.229999906384,85.0,-4.0,4.0,-0.0769610411361285,-11.0,11.0,-0.1310270163028142,3896.719999960624,633683,1.0,1,minimal,Male,26
126,1,5c281bb85454860001dfe95f,13,1,24.0,pos,80.0,21.0,stimulus-21-4.png,3533.6749999551103,99.0,3.0,3.0,0.1335313926245227,1.0,2.333333333333333,0.0622542809491341,3758.251666634654,633683,1.0,1,minimal,Male,26
127,1,5c281bb85454860001dfe95f,13,2,23.0,pos,80.0,21.0,stimulus-21-1.png,3915.459999931045,99.0,2.0,2.0,0.0909717782057266,1.0,2.333333333333333,0.0622542809491341,3758.251666634654,633683,1.0,1,minimal,Male,26
128,1,5c281bb85454860001dfe95f,13,3,52.0,pos,80.0,54.0,stimulus-54-3.png,3825.620000017807,99.0,-2.0,2.0,-0.0377403279828469,1.0,2.333333333333333,0.0622542809491341,3758.251666634654,633683,1.0,1,minimal,Male,26
129,1,5c281bb85454860001dfe95f,14,1,88.0,neut,84.0,107.0,stimulus-107-4.png,2750.355000025593,85.0,-19.0,19.0,-0.1954920199836989,-7.666666666666667,9.666666666666666,-0.0432064252776633,2988.06666668194,633683,1.0,1,minimal,Male,26
130,1,5c281bb85454860001dfe95f,14,2,24.0,neut,84.0,21.0,stimulus-21-1.png,3602.349999942817,85.0,3.0,3.0,0.1335313926245227,-7.666666666666667,9.666666666666666,-0.0432064252776633,2988.06666668194,633683,1.0,1,minimal,Male,26
131,1,5c281bb85454860001dfe95f,14,3,100.0,neut,84.0,107.0,stimulus-107-5.png,2611.4950000774115,85.0,-7.0,7.0,-0.0676586484738139,-7.666666666666667,9.666666666666666,-0.0432064252776633,2988.06666668194,633683,1.0,1,minimal,Male,26
132,1,5c281bb85454860001dfe95f,15,1,90.0,pos,89.0,107.0,stimulus-107-1.png,4279.940000036731,100.0,-17.0,17.0,-0.1730191641316407,-2.0,9.333333333333334,0.0963387651549725,3741.6183333455897,633683,1.0,1,minimal,Male,26
133,1,5c281bb85454860001dfe95f,15,2,28.0,pos,89.0,21.0,stimulus-21-2.png,3472.18000004068,100.0,7.0,7.0,0.2876820724517808,-2.0,9.333333333333334,0.0963387651549725,3741.6183333455897,633683,1.0,1,minimal,Male,26
134,1,5c281bb85454860001dfe95f,15,3,25.0,pos,89.0,21.0,stimulus-21-3.png,3472.734999959357,100.0,4.0,4.0,0.1743533871447775,-2.0,9.333333333333334,0.0963387651549725,3741.6183333455897,633683,1.0,1,minimal,Male,26
135,1,5b1af8c6cd12230001684625,1,1,16.0,neut,76.0,21.0,stimulus-21-6.png,3136.799999978393,75.0,-5.0,5.0,-0.2719337154836418,-4.666666666666667,4.666666666666667,-0.1514184240925322,2849.0799999951078,633677,4.0,2,mild,Male,22
136,1,5b1af8c6cd12230001684625,1,2,21.0,neut,76.0,21.0,stimulus-21-0.png,3652.4950000457466,75.0,0.0,0.0,0.0,-4.666666666666667,4.666666666666667,-0.1514184240925322,2849.0799999951078,633677,4.0,2,mild,Male,22
137,1,5b1af8c6cd12230001684625,1,3,45.0,neut,76.0,54.0,stimulus-54-3.png,1757.9449999611825,75.0,-9.0,9.0,-0.1823215567939549,-4.666666666666667,4.666666666666667,-0.1514184240925322,2849.0799999951078,633677,4.0,2,mild,Male,22
138,1,5b1af8c6cd12230001684625,2,1,37.0,pos,78.0,54.0,stimulus-54-1.png,2461.17000002414,98.0,-17.0,17.0,-0.3780661339200502,-5.666666666666667,7.666666666666667,-0.1328951403742619,3014.0366666018963,633677,4.0,2,mild,Male,22
139,1,5b1af8c6cd12230001684625,2,2,18.0,pos,78.0,21.0,stimulus-21-6.png,3262.589999940247,98.0,-3.0,3.0,-0.1541506798272585,-5.666666666666667,7.666666666666667,-0.1328951403742619,3014.0366666018963,633677,4.0,2,mild,Male,22
140,1,5b1af8c6cd12230001684625,2,3,24.0,pos,78.0,21.0,stimulus-21-4.png,3318.349999841302,98.0,3.0,3.0,0.1335313926245227,-5.666666666666667,7.666666666666667,-0.1328951403742619,3014.0366666018963,633677,4.0,2,mild,Male,22
141,1,5b1af8c6cd12230001684625,3,1,53.0,neg,69.0,54.0,stimulus-54-6.png,3365.6550000887364,49.0,-1.0,1.0,-0.0186921330121525,-7.0,12.333333333333334,-0.0613075921754065,2250.1883332928023,633677,4.0,2,mild,Male,22
142,1,5b1af8c6cd12230001684625,3,2,62.0,neg,69.0,54.0,stimulus-54-2.png,1701.9199999049304,49.0,8.0,8.0,0.1381503384808171,-7.0,12.333333333333334,-0.0613075921754065,2250.1883332928023,633677,4.0,2,mild,Male,22
143,1,5b1af8c6cd12230001684625,3,3,79.0,neg,69.0,107.0,stimulus-107-1.png,1682.9899998847393,49.0,-28.0,28.0,-0.3033809819948843,-7.0,12.333333333333334,-0.0613075921754065,2250.1883332928023,633677,4.0,2,mild,Male,22
144,1,5b1af8c6cd12230001684625,4,1,47.0,pos,84.0,54.0,stimulus-54-2.png,2142.865000059828,100.0,-7.0,7.0,-0.1388364448542161,-11.666666666666666,12.333333333333334,-0.1361454789972123,3804.126666703572,633677,4.0,2,mild,Male,22
145,1,5b1af8c6cd12230001684625,4,2,78.0,pos,84.0,107.0,stimulus-107-2.png,3936.040000058711,100.0,-29.0,29.0,-0.3161200077723141,-11.666666666666666,12.333333333333334,-0.1361454789972123,3804.126666703572,633677,4.0,2,mild,Male,22
146,1,5b1af8c6cd12230001684625,4,3,22.0,pos,84.0,21.0,stimulus-21-0.png,5333.474999992177,100.0,1.0,1.0,0.046520015634893,-11.666666666666666,12.333333333333334,-0.1361454789972123,3804.126666703572,633677,4.0,2,mild,Male,22
147,1,5b1af8c6cd12230001684625,5,1,71.0,neut,76.0,107.0,stimulus-107-6.png,2436.754999915138,75.0,-36.0,36.0,-0.4101489574205903,-43.0,43.0,-0.5170449324645302,1670.4349999005597,633677,4.0,2,mild,Male,22
148,1,5b1af8c6cd12230001684625,5,2,62.0,neut,76.0,107.0,stimulus-107-5.png,1174.4999999646095,75.0,-45.0,45.0,-0.5456944494168141,-43.0,43.0,-0.5170449324645302,1670.4349999005597,633677,4.0,2,mild,Male,22
149,1,5b1af8c6cd12230001684625,5,3,59.0,neut,76.0,107.0,stimulus-107-9.png,1400.0499998219311,75.0,-48.0,48.0,-0.5952913905561861,-43.0,43.0,-0.5170449324645302,1670.4349999005597,633677,4.0,2,mild,Male,22
150,1,5b1af8c6cd12230001684625,6,1,38.0,neg,84.0,54.0,stimulus-54-9.png,2344.8600000701845,64.0,-16.0,16.0,-0.3513978868378888,-35.666666666666664,35.666666666666664,-0.4913216682000554,1824.0500000150253,633677,4.0,2,mild,Male,22
151,1,5b1af8c6cd12230001684625,6,2,54.0,neg,84.0,107.0,stimulus-107-6.png,1381.400000071153,64.0,-53.0,53.0,-0.6838447878976313,-35.666666666666664,35.666666666666664,-0.4913216682000554,1824.0500000150253,633677,4.0,2,mild,Male,22
152,1,5b1af8c6cd12230001684625,6,3,69.0,neg,84.0,107.0,stimulus-107-0.png,1745.8899999037385,64.0,-38.0,38.0,-0.4387223298646461,-35.666666666666664,35.666666666666664,-0.4913216682000554,1824.0500000150253,633677,4.0,2,mild,Male,22
153,1,5b1af8c6cd12230001684625,7,1,37.0,neg,79.0,54.0,stimulus-54-0.png,1844.2100000102075,58.0,-17.0,17.0,-0.3780661339200502,-23.666666666666668,23.666666666666668,-0.3932313191580216,1895.1699999937168,633677,4.0,2,mild,Male,22
154,1,5b1af8c6cd12230001684625,7,2,56.0,neg,79.0,107.0,stimulus-107-0.png,1910.344999982044,58.0,-51.0,51.0,-0.6474771437267561,-23.666666666666668,23.666666666666668,-0.3932313191580216,1895.1699999937168,633677,4.0,2,mild,Male,22
155,1,5b1af8c6cd12230001684625,7,3,18.0,neg,79.0,21.0,stimulus-21-5.png,1930.9549999888984,58.0,-3.0,3.0,-0.1541506798272585,-23.666666666666668,23.666666666666668,-0.3932313191580216,1895.1699999937168,633677,4.0,2,mild,Male,22
156,1,5b1af8c6cd12230001684625,8,1,21.0,neg,83.0,21.0,stimulus-21-3.png,3414.309999905526,64.0,0.0,0.0,0.0,-17.0,17.0,-0.1825016502722067,2226.4083332847804,633677,4.0,2,mild,Male,22
157,1,5b1af8c6cd12230001684625,8,2,77.0,neg,83.0,107.0,stimulus-107-4.png,2073.7949998583645,64.0,-30.0,30.0,-0.3290234126082216,-17.0,17.0,-0.1825016502722067,2226.4083332847804,633677,4.0,2,mild,Male,22
158,1,5b1af8c6cd12230001684625,8,3,86.0,neg,83.0,107.0,stimulus-107-2.png,1191.12000009045,64.0,-21.0,21.0,-0.2184815382083984,-17.0,17.0,-0.1825016502722067,2226.4083332847804,633677,4.0,2,mild,Male,22
159,1,5b1af8c6cd12230001684625,9,1,61.0,pos,79.0,107.0,stimulus-107-3.png,2498.675000155345,99.0,-46.0,46.0,-0.5619549702885944,-19.666666666666668,21.0,-0.2654685308391653,2224.826666759327,633677,4.0,2,mild,Male,22
160,1,5b1af8c6cd12230001684625,9,2,23.0,pos,79.0,21.0,stimulus-21-5.png,2887.485000072047,99.0,2.0,2.0,0.0909717782057266,-19.666666666666668,21.0,-0.2654685308391653,2224.826666759327,633677,4.0,2,mild,Male,22
161,1,5b1af8c6cd12230001684625,9,3,39.0,pos,79.0,54.0,stimulus-54-1.png,1288.3200000505894,99.0,-15.0,15.0,-0.3254224004346282,-19.666666666666668,21.0,-0.2654685308391653,2224.826666759327,633677,4.0,2,mild,Male,22
162,1,5b1af8c6cd12230001684625,10,1,46.0,neg,85.0,54.0,stimulus-54-0.png,1703.785000136122,67.0,-8.0,8.0,-0.1603426500751794,-6.333333333333333,7.666666666666667,-0.1149276172431397,1779.5033333046983,633677,4.0,2,mild,Male,22
163,1,5b1af8c6cd12230001684625,10,2,41.0,neg,85.0,54.0,stimulus-54-5.png,2720.7799998577684,67.0,-13.0,13.0,-0.2754119798599665,-6.333333333333333,7.666666666666667,-0.1149276172431397,1779.5033333046983,633677,4.0,2,mild,Male,22
164,1,5b1af8c6cd12230001684625,10,3,23.0,neg,85.0,21.0,stimulus-21-9.png,913.9449999202044,67.0,2.0,2.0,0.0909717782057266,-6.333333333333333,7.666666666666667,-0.1149276172431397,1779.5033333046983,633677,4.0,2,mild,Male,22
165,1,5b1af8c6cd12230001684625,11,1,54.0,neut,78.0,54.0,stimulus-54-5.png,2627.440000185743,78.0,0.0,0.0,0.0,-2.333333333333333,2.333333333333333,-0.0449680254788316,2209.856666624546,633677,4.0,2,mild,Male,22
166,1,5b1af8c6cd12230001684625,11,2,49.0,neut,78.0,54.0,stimulus-54-6.png,1646.2649998720733,78.0,-5.0,5.0,-0.097163748453648,-2.333333333333333,2.333333333333333,-0.0449680254788316,2209.856666624546,633677,4.0,2,mild,Male,22
167,1,5b1af8c6cd12230001684625,11,3,52.0,neut,78.0,54.0,stimulus-54-4.png,2355.8649998158216,78.0,-2.0,2.0,-0.0377403279828469,-2.333333333333333,2.333333333333333,-0.0449680254788316,2209.856666624546,633677,4.0,2,mild,Male,22
168,1,5b1af8c6cd12230001684625,12,1,63.0,neut,80.0,107.0,stimulus-107-3.png,1712.1749999932945,78.0,-44.0,44.0,-0.5296941080703732,-16.333333333333332,18.33333333333333,-0.1855017885070099,2517.5949999441705,633677,4.0,2,mild,Male,22
169,1,5b1af8c6cd12230001684625,12,2,24.0,neut,80.0,21.0,stimulus-21-2.png,4207.784999860451,78.0,3.0,3.0,0.1335313926245227,-16.333333333333332,18.33333333333333,-0.1855017885070099,2517.5949999441705,633677,4.0,2,mild,Male,22
170,1,5b1af8c6cd12230001684625,12,3,46.0,neut,80.0,54.0,stimulus-54-4.png,1632.8249999787658,78.0,-8.0,8.0,-0.1603426500751794,-16.333333333333332,18.33333333333333,-0.1855017885070099,2517.5949999441705,633677,4.0,2,mild,Male,22
171,1,5b1af8c6cd12230001684625,13,1,31.0,pos,83.0,21.0,stimulus-21-4.png,4422.250000061467,100.0,10.0,10.0,0.3894647667617232,8.333333333333334,8.333333333333334,0.278042658877937,4413.088333327323,633677,4.0,2,mild,Male,22
172,1,5b1af8c6cd12230001684625,13,2,29.0,pos,83.0,21.0,stimulus-21-1.png,3326.0049999225885,100.0,8.0,8.0,0.3227733922630511,8.333333333333334,8.333333333333334,0.278042658877937,4413.088333327323,633677,4.0,2,mild,Male,22
173,1,5b1af8c6cd12230001684625,13,3,61.0,pos,83.0,54.0,stimulus-54-3.png,5491.009999997914,100.0,7.0,7.0,0.1218898176090368,8.333333333333334,8.333333333333334,0.278042658877937,4413.088333327323,633677,4.0,2,mild,Male,22
174,1,5b1af8c6cd12230001684625,14,1,72.0,neut,83.0,107.0,stimulus-107-4.png,2428.760000038892,84.0,-35.0,35.0,-0.3961627154458504,-21.33333333333333,22.666666666666668,-0.2157621438052328,2960.843333431209,633677,4.0,2,mild,Male,22
175,1,5b1af8c6cd12230001684625,14,2,23.0,neut,83.0,21.0,stimulus-21-1.png,4028.9500001817937,84.0,2.0,2.0,0.0909717782057266,-21.33333333333333,22.666666666666668,-0.2157621438052328,2960.843333431209,633677,4.0,2,mild,Male,22
176,1,5b1af8c6cd12230001684625,14,3,76.0,neut,83.0,107.0,stimulus-107-5.png,2424.820000072941,84.0,-31.0,31.0,-0.3420954941755747,-21.33333333333333,22.666666666666668,-0.2157621438052328,2960.843333431209,633677,4.0,2,mild,Male,22
177,1,5b1af8c6cd12230001684625,15,1,58.0,pos,83.0,107.0,stimulus-107-1.png,1524.345000041649,100.0,-49.0,49.0,-0.6123858239154867,-16.0,17.333333333333332,-0.1900680699597307,3407.2916667597988,633677,4.0,2,mild,Male,22
178,1,5b1af8c6cd12230001684625,15,2,20.0,pos,83.0,21.0,stimulus-21-2.png,3143.2350000832234,100.0,-1.0,1.0,-0.0487901641694321,-16.0,17.333333333333332,-0.1900680699597307,3407.2916667597988,633677,4.0,2,mild,Male,22
179,1,5b1af8c6cd12230001684625,15,3,23.0,pos,83.0,21.0,stimulus-21-3.png,5554.295000154525,100.0,2.0,2.0,0.0909717782057266,-16.0,17.333333333333332,-0.1900680699597307,3407.2916667597988,633677,4.0,2,mild,Male,22
180,1,5c871b467e3a9f00012450d9,1,1,20.0,neut,71.0,21.0,stimulus-21-6.png,1749.9149999930523,69.0,-1.0,1.0,-0.0487901641694321,8.0,8.666666666666666,0.1891319917514617,2049.3433333273665,633685,1.0,1,minimal,Female,27
181,1,5c871b467e3a9f00012450d9,1,2,30.0,neut,71.0,21.0,stimulus-21-0.png,1921.0800000000745,69.0,9.0,9.0,0.3566749439387324,8.0,8.666666666666666,0.1891319917514617,2049.3433333273665,633685,1.0,1,minimal,Female,27
182,1,5c871b467e3a9f00012450d9,1,3,70.0,neut,71.0,54.0,stimulus-54-3.png,2477.034999988973,69.0,16.0,16.0,0.2595111954850848,8.0,8.666666666666666,0.1891319917514617,2049.3433333273665,633685,1.0,1,minimal,Female,27
183,1,5c871b467e3a9f00012450d9,2,1,50.0,pos,56.0,54.0,stimulus-54-1.png,2122.3699999973182,74.0,-4.0,4.0,-0.0769610411361285,3.0,5.666666666666667,0.1513557633157938,4456.223333332066,633685,1.0,1,minimal,Female,27
184,1,5c871b467e3a9f00012450d9,2,2,25.0,pos,56.0,21.0,stimulus-21-6.png,4014.749999972992,74.0,4.0,4.0,0.1743533871447775,3.0,5.666666666666667,0.1513557633157938,4456.223333332066,633685,1.0,1,minimal,Female,27
185,1,5c871b467e3a9f00012450d9,2,3,30.0,pos,56.0,21.0,stimulus-21-4.png,7231.550000025891,74.0,9.0,9.0,0.3566749439387324,3.0,5.666666666666667,0.1513557633157938,4456.223333332066,633685,1.0,1,minimal,Female,27
186,1,5c871b467e3a9f00012450d9,3,1,50.0,neg,44.0,54.0,stimulus-54-6.png,1847.5150000303984,25.0,-4.0,4.0,-0.0769610411361285,5.0,7.666666666666667,0.0700672285598223,1761.3816666610849,633685,1.0,1,minimal,Female,27
187,1,5c871b467e3a9f00012450d9,3,2,70.0,neg,44.0,54.0,stimulus-54-2.png,1421.149999951013,25.0,16.0,16.0,0.2595111954850848,5.0,7.666666666666667,0.0700672285598223,1761.3816666610849,633685,1.0,1,minimal,Female,27
188,1,5c871b467e3a9f00012450d9,3,3,110.0,neg,44.0,107.0,stimulus-107-1.png,2015.480000001844,25.0,3.0,3.0,0.0276515313305107,5.0,7.666666666666667,0.0700672285598223,1761.3816666610849,633685,1.0,1,minimal,Female,27
189,1,5c871b467e3a9f00012450d9,4,1,60.0,pos,58.0,54.0,stimulus-54-2.png,1880.0700000138024,78.0,6.0,6.0,0.1053605156578258,-0.6666666666666666,4.666666666666667,-0.00369609899514,1903.816666667505,633685,1.0,1,minimal,Female,27
190,1,5c871b467e3a9f00012450d9,4,2,100.0,pos,58.0,107.0,stimulus-107-2.png,1994.550000003073,78.0,-7.0,7.0,-0.0676586484738139,-0.6666666666666666,4.666666666666667,-0.00369609899514,1903.816666667505,633685,1.0,1,minimal,Female,27
191,1,5c871b467e3a9f00012450d9,4,3,20.0,pos,58.0,21.0,stimulus-21-0.png,1836.829999985639,78.0,-1.0,1.0,-0.0487901641694321,-0.6666666666666666,4.666666666666667,-0.00369609899514,1903.816666667505,633685,1.0,1,minimal,Female,27
192,1,5c871b467e3a9f00012450d9,5,1,120.0,neut,57.0,107.0,stimulus-107-6.png,1664.0999999945052,57.0,13.0,13.0,0.11466290832014,23.0,23.0,0.1927273708204048,1635.094999995393,633685,1.0,1,minimal,Female,27
193,1,5c871b467e3a9f00012450d9,5,2,130.0,neut,57.0,107.0,stimulus-107-5.png,1559.6699999878183,57.0,23.0,23.0,0.1947056159936764,23.0,23.0,0.1927273708204048,1635.094999995393,633685,1.0,1,minimal,Female,27
194,1,5c871b467e3a9f00012450d9,5,3,140.0,neut,57.0,107.0,stimulus-107-9.png,1681.5150000038557,57.0,33.0,33.0,0.2688135881473981,23.0,23.0,0.1927273708204048,1635.094999995393,633685,1.0,1,minimal,Female,27
195,1,5c871b467e3a9f00012450d9,6,1,40.0,neg,50.0,54.0,stimulus-54-9.png,3643.849999993108,29.0,-14.0,14.0,-0.3001045924503382,-2.6666666666666665,11.333333333333334,-0.0843667775346707,3064.8066666520517,633685,1.0,1,minimal,Female,27
196,1,5c871b467e3a9f00012450d9,6,2,100.0,neg,50.0,107.0,stimulus-107-6.png,4205.244999960996,29.0,-7.0,7.0,-0.0676586484738139,-2.6666666666666665,11.333333333333334,-0.0843667775346707,3064.8066666520517,633685,1.0,1,minimal,Female,27
197,1,5c871b467e3a9f00012450d9,6,3,120.0,neg,50.0,107.0,stimulus-107-0.png,1345.325000002049,29.0,13.0,13.0,0.11466290832014,-2.6666666666666665,11.333333333333334,-0.0843667775346707,3064.8066666520517,633685,1.0,1,minimal,Female,27
198,1,5c871b467e3a9f00012450d9,7,1,40.0,neg,63.0,54.0,stimulus-54-0.png,2529.1650000144728,43.0,-14.0,14.0,-0.3001045924503382,-10.666666666666666,10.666666666666666,-0.173971306917137,2899.611666643372,633685,1.0,1,minimal,Female,27
199,1,5c871b467e3a9f00012450d9,7,2,90.0,neg,63.0,107.0,stimulus-107-0.png,1852.689999970608,43.0,-17.0,17.0,-0.1730191641316407,-10.666666666666666,10.666666666666666,-0.173971306917137,2899.611666643372,633685,1.0,1,minimal,Female,27
200,1,5c871b467e3a9f00012450d9,7,3,20.0,neg,63.0,21.0,stimulus-21-5.png,4316.979999945033,43.0,-1.0,1.0,-0.0487901641694321,-10.666666666666666,10.666666666666666,-0.173971306917137,2899.611666643372,633685,1.0,1,minimal,Female,27
201,1,5c871b467e3a9f00012450d9,8,1,25.0,neg,48.0,21.0,stimulus-21-3.png,4568.859999999404,28.0,4.0,4.0,0.1743533871447775,10.0,10.0,0.1322368448229882,3054.0166666614823,633685,1.0,1,minimal,Female,27
202,1,5c871b467e3a9f00012450d9,8,2,110.0,neg,48.0,107.0,stimulus-107-4.png,2921.2599999736995,28.0,3.0,3.0,0.0276515313305107,10.0,10.0,0.1322368448229882,3054.0166666614823,633685,1.0,1,minimal,Female,27
203,1,5c871b467e3a9f00012450d9,8,3,130.0,neg,48.0,107.0,stimulus-107-2.png,1671.9300000113433,28.0,23.0,23.0,0.1947056159936764,10.0,10.0,0.1322368448229882,3054.0166666614823,633685,1.0,1,minimal,Female,27
204,1,5c871b467e3a9f00012450d9,9,1,110.0,pos,50.0,107.0,stimulus-107-3.png,6206.319999997504,71.0,3.0,3.0,0.0276515313305107,-2.333333333333333,7.0,-0.0326998913250166,3764.511666668113,633685,1.0,1,minimal,Female,27
205,1,5c871b467e3a9f00012450d9,9,2,25.0,pos,50.0,21.0,stimulus-21-5.png,3253.7899999879305,71.0,4.0,4.0,0.1743533871447775,-2.333333333333333,7.0,-0.0326998913250166,3764.511666668113,633685,1.0,1,minimal,Female,27
206,1,5c871b467e3a9f00012450d9,9,3,40.0,pos,50.0,54.0,stimulus-54-1.png,1833.4250000189056,71.0,-14.0,14.0,-0.3001045924503382,-2.333333333333333,7.0,-0.0326998913250166,3764.511666668113,633685,1.0,1,minimal,Female,27
207,1,5c871b467e3a9f00012450d9,10,1,70.0,neg,55.0,54.0,stimulus-54-0.png,2634.955000015907,35.0,16.0,16.0,0.2595111954850848,13.666666666666666,13.666666666666666,0.2918991116363007,2917.5800000084564,633685,1.0,1,minimal,Female,27
208,1,5c871b467e3a9f00012450d9,10,2,70.0,neg,55.0,54.0,stimulus-54-5.png,2699.674999981653,35.0,16.0,16.0,0.2595111954850848,13.666666666666666,13.666666666666666,0.2918991116363007,2917.5800000084564,633685,1.0,1,minimal,Female,27
209,1,5c871b467e3a9f00012450d9,10,3,30.0,neg,55.0,21.0,stimulus-21-9.png,3418.110000027809,35.0,9.0,9.0,0.3566749439387324,13.666666666666666,13.666666666666666,0.2918991116363007,2917.5800000084564,633685,1.0,1,minimal,Female,27
210,1,5c871b467e3a9f00012450d9,11,1,60.0,neut,48.0,54.0,stimulus-54-5.png,3514.3549999920647,48.0,6.0,6.0,0.1053605156578258,19.33333333333333,19.33333333333333,0.297148563959013,2599.3583333329298,633685,1.0,1,minimal,Female,27
211,1,5c871b467e3a9f00012450d9,11,2,80.0,neut,48.0,54.0,stimulus-54-6.png,1862.584999995306,48.0,26.0,26.0,0.3930425881096067,19.33333333333333,19.33333333333333,0.297148563959013,2599.3583333329298,633685,1.0,1,minimal,Female,27
212,1,5c871b467e3a9f00012450d9,11,3,80.0,neut,48.0,54.0,stimulus-54-4.png,2421.135000011418,48.0,26.0,26.0,0.3930425881096067,19.33333333333333,19.33333333333333,0.297148563959013,2599.3583333329298,633685,1.0,1,minimal,Female,27
213,1,5c871b467e3a9f00012450d9,12,1,100.0,neut,50.0,107.0,stimulus-107-3.png,2888.500000000932,51.0,-7.0,7.0,-0.0676586484738139,1.0,5.666666666666667,0.0706850847762631,2156.385000019024,633685,1.0,1,minimal,Female,27
214,1,5c871b467e3a9f00012450d9,12,2,25.0,neut,50.0,21.0,stimulus-21-2.png,1600.5500000319446,51.0,4.0,4.0,0.1743533871447775,1.0,5.666666666666667,0.0706850847762631,2156.385000019024,633685,1.0,1,minimal,Female,27
215,1,5c871b467e3a9f00012450d9,12,3,60.0,neut,50.0,54.0,stimulus-54-4.png,1980.105000024196,51.0,6.0,6.0,0.1053605156578258,1.0,5.666666666666667,0.0706850847762631,2156.385000019024,633685,1.0,1,minimal,Female,27
216,1,5c871b467e3a9f00012450d9,13,1,25.0,pos,55.0,21.0,stimulus-21-4.png,9866.454999952111,75.0,4.0,4.0,0.1743533871447775,4.666666666666667,4.666666666666667,0.1513557633157936,7380.059999976463,633685,1.0,1,minimal,Female,27
217,1,5c871b467e3a9f00012450d9,13,2,25.0,pos,55.0,21.0,stimulus-21-1.png,5668.654999986757,75.0,4.0,4.0,0.1743533871447775,4.666666666666667,4.666666666666667,0.1513557633157936,7380.059999976463,633685,1.0,1,minimal,Female,27
218,1,5c871b467e3a9f00012450d9,13,3,60.0,pos,55.0,54.0,stimulus-54-3.png,6605.069999990519,75.0,6.0,6.0,0.1053605156578258,4.666666666666667,4.666666666666667,0.1513557633157936,7380.059999976463,633685,1.0,1,minimal,Female,27
219,1,5c871b467e3a9f00012450d9,14,1,80.0,neut,49.0,107.0,stimulus-107-4.png,2722.53999998793,47.0,-27.0,27.0,-0.2908021997880246,-10.0,12.666666666666666,-0.061369153705687,3066.3266666815616,633685,1.0,1,minimal,Female,27
220,1,5c871b467e3a9f00012450d9,14,2,25.0,neut,49.0,21.0,stimulus-21-1.png,4283.31500000786,47.0,4.0,4.0,0.1743533871447775,-10.0,12.666666666666666,-0.061369153705687,3066.3266666815616,633685,1.0,1,minimal,Female,27
221,1,5c871b467e3a9f00012450d9,14,3,100.0,neut,49.0,107.0,stimulus-107-5.png,2193.1250000488944,47.0,-7.0,7.0,-0.0676586484738139,-10.0,12.666666666666666,-0.061369153705687,3066.3266666815616,633685,1.0,1,minimal,Female,27
222,1,5c871b467e3a9f00012450d9,15,1,80.0,pos,51.0,107.0,stimulus-107-1.png,6052.460000035353,70.0,-27.0,27.0,-0.2908021997880246,-4.666666666666667,13.333333333333334,0.0800753770984951,5768.50000002499,633685,1.0,1,minimal,Female,27
223,1,5c871b467e3a9f00012450d9,15,2,30.0,pos,51.0,21.0,stimulus-21-2.png,7587.750000006054,70.0,9.0,9.0,0.3566749439387324,-4.666666666666667,13.333333333333334,0.0800753770984951,5768.50000002499,633685,1.0,1,minimal,Female,27
224,1,5c871b467e3a9f00012450d9,15,3,25.0,pos,51.0,21.0,stimulus-21-3.png,3665.290000033565,70.0,4.0,4.0,0.1743533871447775,-4.666666666666667,13.333333333333334,0.0800753770984951,5768.50000002499,633685,1.0,1,minimal,Female,27
225,1,5c3d824ae0ea820001461dd6,1,1,23.0,neut,62.0,21.0,stimulus-21-6.png,5354.599999962375,63.0,2.0,2.0,0.0909717782057266,1.3333333333333333,1.3333333333333333,0.0606478521371511,3043.233333310733,633686,6.0,2,mild,Female,43
226,1,5c3d824ae0ea820001461dd6,1,2,23.0,neut,62.0,21.0,stimulus-21-0.png,2736.7999999551103,63.0,2.0,2.0,0.0909717782057266,1.3333333333333333,1.3333333333333333,0.0606478521371511,3043.233333310733,633686,6.0,2,mild,Female,43
227,1,5c3d824ae0ea820001461dd6,1,3,54.0,neut,62.0,54.0,stimulus-54-3.png,1038.300000014715,63.0,0.0,0.0,0.0,1.3333333333333333,1.3333333333333333,0.0606478521371511,3043.233333310733,633686,6.0,2,mild,Female,43
228,1,5c3d824ae0ea820001461dd6,2,1,60.0,pos,62.0,54.0,stimulus-54-1.png,2931.600000010804,82.0,6.0,6.0,0.1053605156578258,2.0,2.6666666666666665,0.0343634557077622,2586.0333333645635,633686,6.0,2,mild,Female,43
229,1,5c3d824ae0ea820001461dd6,2,2,22.0,pos,62.0,21.0,stimulus-21-6.png,2259.500000043772,82.0,1.0,1.0,0.046520015634893,2.0,2.6666666666666665,0.0343634557077622,2586.0333333645635,633686,6.0,2,mild,Female,43
230,1,5c3d824ae0ea820001461dd6,2,3,20.0,pos,62.0,21.0,stimulus-21-4.png,2567.0000000391155,82.0,-1.0,1.0,-0.0487901641694321,2.0,2.6666666666666665,0.0343634557077622,2586.0333333645635,633686,6.0,2,mild,Female,43
231,1,5c3d824ae0ea820001461dd6,3,1,52.0,neg,53.0,54.0,stimulus-54-6.png,3177.9000000096858,33.0,-2.0,2.0,-0.0377403279828469,7.333333333333333,8.666666666666666,0.0874419345562184,2903.2333333355687,633686,6.0,2,mild,Female,43
232,1,5c3d824ae0ea820001461dd6,3,2,65.0,neg,53.0,54.0,stimulus-54-2.png,2719.1999999340624,33.0,11.0,11.0,0.1854032233313622,7.333333333333333,8.666666666666666,0.0874419345562184,2903.2333333355687,633686,6.0,2,mild,Female,43
233,1,5c3d824ae0ea820001461dd6,3,3,120.0,neg,53.0,107.0,stimulus-107-1.png,2812.600000062957,33.0,13.0,13.0,0.11466290832014,7.333333333333333,8.666666666666666,0.0874419345562184,2903.2333333355687,633686,6.0,2,mild,Female,43
234,1,5c3d824ae0ea820001461dd6,4,1,50.0,pos,61.0,54.0,stimulus-54-2.png,3195.199999958277,82.0,-4.0,4.0,-0.0769610411361285,-7.0,7.0,-0.0833267350892564,3194.100000003042,633686,6.0,2,mild,Female,43
235,1,5c3d824ae0ea820001461dd6,4,2,90.0,pos,61.0,107.0,stimulus-107-2.png,4324.200000031851,82.0,-17.0,17.0,-0.1730191641316407,-7.0,7.0,-0.0833267350892564,3194.100000003042,633686,6.0,2,mild,Female,43
236,1,5c3d824ae0ea820001461dd6,4,3,21.0,pos,61.0,21.0,stimulus-21-0.png,2062.900000018999,82.0,0.0,0.0,0.0,-7.0,7.0,-0.0833267350892564,3194.100000003042,633686,6.0,2,mild,Female,43
237,1,5c3d824ae0ea820001461dd6,5,1,139.0,neut,50.0,107.0,stimulus-107-6.png,4190.79999998212,51.0,32.0,32.0,0.2616450986687857,26.0,26.0,0.2170187768853795,3362.133333343081,633686,6.0,2,mild,Female,43
238,1,5c3d824ae0ea820001461dd6,5,2,130.0,neut,50.0,107.0,stimulus-107-5.png,2793.599999975413,51.0,23.0,23.0,0.1947056159936764,26.0,26.0,0.2170187768853795,3362.133333343081,633686,6.0,2,mild,Female,43
239,1,5c3d824ae0ea820001461dd6,5,3,130.0,neut,50.0,107.0,stimulus-107-9.png,3102.000000071712,51.0,23.0,23.0,0.1947056159936764,26.0,26.0,0.2170187768853795,3362.133333343081,633686,6.0,2,mild,Female,43
240,1,5c3d824ae0ea820001461dd6,6,1,54.0,neg,46.0,54.0,stimulus-54-9.png,3824.900000006892,25.0,0.0,0.0,0.0,-24.666666666666668,24.666666666666668,-0.2828890616083643,3309.2333333333954,633686,6.0,2,mild,Female,43
241,1,5c3d824ae0ea820001461dd6,6,2,70.0,neg,46.0,107.0,stimulus-107-6.png,3254.7999999951567,25.0,-37.0,37.0,-0.4243335924125464,-24.666666666666668,24.666666666666668,-0.2828890616083643,3309.2333333333954,633686,6.0,2,mild,Female,43
242,1,5c3d824ae0ea820001461dd6,6,3,70.0,neg,46.0,107.0,stimulus-107-0.png,2847.9999999981374,25.0,-37.0,37.0,-0.4243335924125464,-24.666666666666668,24.666666666666668,-0.2828890616083643,3309.2333333333954,633686,6.0,2,mild,Female,43
243,1,5c3d824ae0ea820001461dd6,7,1,50.0,neg,64.0,54.0,stimulus-54-0.png,3600.4999999422585,44.0,-4.0,4.0,-0.0769610411361285,-10.666666666666666,10.666666666666666,-0.1388511350311951,2700.4999999965853,633686,6.0,2,mild,Female,43
244,1,5c3d824ae0ea820001461dd6,7,2,80.0,neg,64.0,107.0,stimulus-107-0.png,2159.6000000135973,44.0,-27.0,27.0,-0.2908021997880246,-10.666666666666666,10.666666666666666,-0.1388511350311951,2700.4999999965853,633686,6.0,2,mild,Female,43
245,1,5c3d824ae0ea820001461dd6,7,3,20.0,neg,64.0,21.0,stimulus-21-5.png,2341.4000000339,44.0,-1.0,1.0,-0.0487901641694321,-10.666666666666666,10.666666666666666,-0.1388511350311951,2700.4999999965853,633686,6.0,2,mild,Female,43
246,1,5c3d824ae0ea820001461dd6,8,1,25.0,neg,60.0,21.0,stimulus-21-3.png,2960.5999999912456,40.0,4.0,4.0,0.1743533871447775,-3.333333333333333,6.0,0.0130120300657165,2593.4333333279938,633686,6.0,2,mild,Female,43
247,1,5c3d824ae0ea820001461dd6,8,2,100.0,neg,60.0,107.0,stimulus-107-4.png,2390.7999999355525,40.0,-7.0,7.0,-0.0676586484738139,-3.333333333333333,6.0,0.0130120300657165,2593.4333333279938,633686,6.0,2,mild,Female,43
248,1,5c3d824ae0ea820001461dd6,8,3,100.0,neg,60.0,107.0,stimulus-107-2.png,2428.9000000571828,40.0,-7.0,7.0,-0.0676586484738139,-3.333333333333333,6.0,0.0130120300657165,2593.4333333279938,633686,6.0,2,mild,Female,43
249,1,5c3d824ae0ea820001461dd6,9,1,90.0,pos,56.0,107.0,stimulus-107-3.png,3270.6000000471254,74.0,-17.0,17.0,-0.1730191641316407,-9.666666666666666,9.666666666666666,-0.169830466917618,3058.833333392007,633686,6.0,2,mild,Female,43
250,1,5c3d824ae0ea820001461dd6,9,2,18.0,pos,56.0,21.0,stimulus-21-5.png,3301.700000069104,74.0,-3.0,3.0,-0.1541506798272585,-9.666666666666666,9.666666666666666,-0.169830466917618,3058.833333392007,633686,6.0,2,mild,Female,43
251,1,5c3d824ae0ea820001461dd6,9,3,45.0,pos,56.0,54.0,stimulus-54-1.png,2604.200000059791,74.0,-9.0,9.0,-0.1823215567939549,-9.666666666666666,9.666666666666666,-0.169830466917618,3058.833333392007,633686,6.0,2,mild,Female,43
252,1,5c3d824ae0ea820001461dd6,10,1,50.0,neg,53.0,54.0,stimulus-54-0.png,3486.400000052526,33.0,-4.0,4.0,-0.0769610411361285,1.3333333333333333,4.0,0.039790417575808,2568.133333348669,633686,6.0,2,mild,Female,43
253,1,5c3d824ae0ea820001461dd6,10,2,60.0,neg,53.0,54.0,stimulus-54-5.png,2420.999999972992,33.0,6.0,6.0,0.1053605156578258,1.3333333333333333,4.0,0.039790417575808,2568.133333348669,633686,6.0,2,mild,Female,43
254,1,5c3d824ae0ea820001461dd6,10,3,23.0,neg,53.0,21.0,stimulus-21-9.png,1797.0000000204889,33.0,2.0,2.0,0.0909717782057266,1.3333333333333333,4.0,0.039790417575808,2568.133333348669,633686,6.0,2,mild,Female,43
255,1,5c3d824ae0ea820001461dd6,11,1,40.0,neut,63.0,54.0,stimulus-54-5.png,3553.5999999847268,64.0,-14.0,14.0,-0.3001045924503382,-4.0,5.333333333333333,-0.0878021050379816,2328.000000018316,633686,6.0,2,mild,Female,43
256,1,5c3d824ae0ea820001461dd6,11,2,55.0,neut,63.0,54.0,stimulus-54-6.png,1812.099999981001,64.0,1.0,1.0,0.0183491386681966,-4.0,5.333333333333333,-0.0878021050379816,2328.000000018316,633686,6.0,2,mild,Female,43
257,1,5c3d824ae0ea820001461dd6,11,3,55.0,neut,63.0,54.0,stimulus-54-4.png,1618.300000089221,64.0,1.0,1.0,0.0183491386681966,-4.0,5.333333333333333,-0.0878021050379816,2328.000000018316,633686,6.0,2,mild,Female,43
258,1,5c3d824ae0ea820001461dd6,12,1,111.0,neut,64.0,107.0,stimulus-107-3.png,2444.499999983236,62.0,4.0,4.0,0.0367013668504281,-1.0,4.333333333333333,-0.0257070891966194,2291.2666666476675,633686,6.0,2,mild,Female,43
259,1,5c3d824ae0ea820001461dd6,12,2,22.0,neut,64.0,21.0,stimulus-21-2.png,2935.299999895505,62.0,1.0,1.0,0.046520015634893,-1.0,4.333333333333333,-0.0257070891966194,2291.2666666476675,633686,6.0,2,mild,Female,43
260,1,5c3d824ae0ea820001461dd6,12,3,46.0,neut,64.0,54.0,stimulus-54-4.png,1494.0000000642613,62.0,-8.0,8.0,-0.1603426500751794,-1.0,4.333333333333333,-0.0257070891966194,2291.2666666476675,633686,6.0,2,mild,Female,43
261,1,5c3d824ae0ea820001461dd6,13,1,22.0,pos,60.0,21.0,stimulus-21-4.png,2689.400000032037,79.0,1.0,1.0,0.046520015634893,-1.3333333333333333,2.6666666666666665,-0.0082476681288657,2717.2666667029257,633686,6.0,2,mild,Female,43
262,1,5c3d824ae0ea820001461dd6,13,2,22.0,pos,60.0,21.0,stimulus-21-1.png,1957.9000000376247,79.0,1.0,1.0,0.046520015634893,-1.3333333333333333,2.6666666666666665,-0.0082476681288657,2717.2666667029257,633686,6.0,2,mild,Female,43
263,1,5c3d824ae0ea820001461dd6,13,3,48.0,pos,60.0,54.0,stimulus-54-3.png,3504.5000000391155,79.0,-6.0,6.0,-0.1177830356563833,-1.3333333333333333,2.6666666666666665,-0.0082476681288657,2717.2666667029257,633686,6.0,2,mild,Female,43
264,1,5c3d824ae0ea820001461dd6,14,1,111.0,neut,62.0,107.0,stimulus-107-4.png,3108.20000001695,63.0,4.0,4.0,0.0367013668504281,6.333333333333333,6.333333333333333,0.0807786844587649,3020.299999974668,633686,6.0,2,mild,Female,43
265,1,5c3d824ae0ea820001461dd6,14,2,23.0,neut,62.0,21.0,stimulus-21-1.png,2377.3999999975786,63.0,2.0,2.0,0.0909717782057266,6.333333333333333,6.333333333333333,0.0807786844587649,3020.299999974668,633686,6.0,2,mild,Female,43
266,1,5c3d824ae0ea820001461dd6,14,3,120.0,neut,62.0,107.0,stimulus-107-5.png,3575.299999909476,63.0,13.0,13.0,0.11466290832014,6.333333333333333,6.333333333333333,0.0807786844587649,3020.299999974668,633686,6.0,2,mild,Female,43
267,1,5c3d824ae0ea820001461dd6,15,1,100.0,pos,57.0,107.0,stimulus-107-1.png,2926.8999999621888,76.0,-7.0,7.0,-0.0676586484738139,-4.333333333333333,4.333333333333333,-0.1253200027094436,2453.199999950205,633686,6.0,2,mild,Female,43
268,1,5c3d824ae0ea820001461dd6,15,2,18.0,pos,57.0,21.0,stimulus-21-2.png,2510.699999984354,76.0,-3.0,3.0,-0.1541506798272585,-4.333333333333333,4.333333333333333,-0.1253200027094436,2453.199999950205,633686,6.0,2,mild,Female,43
269,1,5c3d824ae0ea820001461dd6,15,3,18.0,pos,57.0,21.0,stimulus-21-3.png,1921.999999904073,76.0,-3.0,3.0,-0.1541506798272585,-4.333333333333333,4.333333333333333,-0.1253200027094436,2453.199999950205,633686,6.0,2,mild,Female,43
270,1,5c5b127e8348b50001fcb280,1,1,39.0,neut,30.0,21.0,stimulus-21-6.png,5927.069999990636,29.0,18.0,18.0,0.6190392084062233,6.666666666666667,9.333333333333334,0.2644641985170002,4448.326666669648,633688,6.0,2,mild,Female,22
271,1,5c5b127e8348b50001fcb280,1,2,27.0,neut,30.0,21.0,stimulus-21-0.png,4042.005000010249,29.0,6.0,6.0,0.2513144282809061,6.666666666666667,9.333333333333334,0.2644641985170002,4448.326666669648,633688,6.0,2,mild,Female,22
272,1,5c5b127e8348b50001fcb280,1,3,50.0,neut,30.0,54.0,stimulus-54-3.png,3375.905000008061,29.0,-4.0,4.0,-0.0769610411361285,6.666666666666667,9.333333333333334,0.2644641985170002,4448.326666669648,633688,6.0,2,mild,Female,22
273,1,5c5b127e8348b50001fcb280,2,1,80.0,pos,22.0,54.0,stimulus-54-1.png,4964.354999989156,41.0,26.0,26.0,0.3930425881096067,14.0,14.0,0.3361373558756226,5039.356666665602,633688,6.0,2,mild,Female,22
274,1,5c5b127e8348b50001fcb280,2,2,34.0,pos,22.0,21.0,stimulus-21-6.png,5471.825000000536,41.0,13.0,13.0,0.4818380868927385,14.0,14.0,0.3361373558756226,5039.356666665602,633688,6.0,2,mild,Female,22
275,1,5c5b127e8348b50001fcb280,2,3,24.0,pos,22.0,21.0,stimulus-21-4.png,4681.890000007115,41.0,3.0,3.0,0.1335313926245227,14.0,14.0,0.3361373558756226,5039.356666665602,633688,6.0,2,mild,Female,22
276,1,5c5b127e8348b50001fcb280,3,1,67.0,neg,25.0,54.0,stimulus-54-6.png,4889.915000007022,5.0,13.0,13.0,0.2157085728266912,-7.666666666666667,16.333333333333332,-0.079749293266613,4430.138333336799,633688,6.0,2,mild,Female,22
277,1,5c5b127e8348b50001fcb280,3,2,47.0,neg,25.0,54.0,stimulus-54-2.png,4398.010000004433,5.0,-7.0,7.0,-0.1388364448542161,-7.666666666666667,16.333333333333332,-0.079749293266613,4430.138333336799,633688,6.0,2,mild,Female,22
278,1,5c5b127e8348b50001fcb280,3,3,78.0,neg,25.0,107.0,stimulus-107-1.png,4002.489999998943,5.0,-29.0,29.0,-0.3161200077723141,-7.666666666666667,16.333333333333332,-0.079749293266613,4430.138333336799,633688,6.0,2,mild,Female,22
279,1,5c5b127e8348b50001fcb280,4,1,46.0,pos,10.0,54.0,stimulus-54-2.png,5522.429999997257,29.0,-8.0,8.0,-0.1603426500751794,-13.0,17.666666666666668,-0.1037943024960149,5133.904999999989,633688,6.0,2,mild,Female,22
280,1,5c5b127e8348b50001fcb280,4,2,69.0,pos,10.0,107.0,stimulus-107-2.png,4901.670000006561,29.0,-38.0,38.0,-0.4387223298646461,-13.0,17.666666666666668,-0.1037943024960149,5133.904999999989,633688,6.0,2,mild,Female,22
281,1,5c5b127e8348b50001fcb280,4,3,28.0,pos,10.0,21.0,stimulus-21-0.png,4977.614999996149,29.0,7.0,7.0,0.2876820724517808,-13.0,17.666666666666668,-0.1037943024960149,5133.904999999989,633688,6.0,2,mild,Female,22
282,1,5c5b127e8348b50001fcb280,5,1,100.0,neut,11.0,107.0,stimulus-107-6.png,4422.76000000129,10.0,-7.0,7.0,-0.0676586484738139,-4.333333333333333,13.0,-0.0494959200457909,5427.421666667215,633688,6.0,2,mild,Female,22
283,1,5c5b127e8348b50001fcb280,5,2,120.0,neut,11.0,107.0,stimulus-107-5.png,7814.429999998538,10.0,13.0,13.0,0.11466290832014,-4.333333333333333,13.0,-0.0494959200457909,5427.421666667215,633688,6.0,2,mild,Female,22
284,1,5c5b127e8348b50001fcb280,5,3,88.0,neut,11.0,107.0,stimulus-107-9.png,4045.075000001816,10.0,-19.0,19.0,-0.1954920199836989,-4.333333333333333,13.0,-0.0494959200457909,5427.421666667215,633688,6.0,2,mild,Female,22
285,1,5c5b127e8348b50001fcb280,6,1,50.0,neg,10.0,54.0,stimulus-54-9.png,7137.085000009392,1.0,-4.0,4.0,-0.0769610411361285,14.0,16.666666666666668,0.1021718184438031,5138.968333335167,633688,6.0,2,mild,Female,22
286,1,5c5b127e8348b50001fcb280,6,2,120.0,neg,10.0,107.0,stimulus-107-6.png,4005.7649999944265,1.0,13.0,13.0,0.11466290832014,14.0,16.666666666666668,0.1021718184438031,5138.968333335167,633688,6.0,2,mild,Female,22
287,1,5c5b127e8348b50001fcb280,6,3,140.0,neg,10.0,107.0,stimulus-107-0.png,4274.055000001681,1.0,33.0,33.0,0.2688135881473981,14.0,16.666666666666668,0.1021718184438031,5138.968333335167,633688,6.0,2,mild,Female,22
288,1,5c5b127e8348b50001fcb280,7,1,45.0,neg,100.0,54.0,stimulus-54-0.png,2826.264999996056,78.0,-9.0,9.0,-0.1823215567939549,-9.666666666666666,11.0,-0.1071757855199391,3487.176666666832,633688,6.0,2,mild,Female,22
289,1,5c5b127e8348b50001fcb280,7,2,85.0,neg,100.0,107.0,stimulus-107-0.png,3969.884999998612,78.0,-22.0,22.0,-0.2301775779715891,-9.666666666666666,11.0,-0.1071757855199391,3487.176666666832,633688,6.0,2,mild,Female,22
290,1,5c5b127e8348b50001fcb280,7,3,23.0,neg,100.0,21.0,stimulus-21-5.png,3665.380000005825,78.0,2.0,2.0,0.0909717782057266,-9.666666666666666,11.0,-0.1071757855199391,3487.176666666832,633688,6.0,2,mild,Female,22
291,1,5c5b127e8348b50001fcb280,8,1,24.0,neg,28.0,21.0,stimulus-21-3.png,3570.494999992661,8.0,3.0,3.0,0.1335313926245227,-21.0,23.0,-0.2023074025201126,3715.0166666639657,633688,6.0,2,mild,Female,22
292,1,5c5b127e8348b50001fcb280,8,2,70.0,neg,28.0,107.0,stimulus-107-4.png,3895.1149999920735,8.0,-37.0,37.0,-0.4243335924125464,-21.0,23.0,-0.2023074025201126,3715.0166666639657,633688,6.0,2,mild,Female,22
293,1,5c5b127e8348b50001fcb280,8,3,78.0,neg,28.0,107.0,stimulus-107-2.png,3679.440000007162,8.0,-29.0,29.0,-0.3161200077723141,-21.0,23.0,-0.2023074025201126,3715.0166666639657,633688,6.0,2,mild,Female,22
294,1,5c5b127e8348b50001fcb280,9,1,65.0,pos,15.0,107.0,stimulus-107-3.png,3942.84499999776,35.0,-42.0,42.0,-0.498441564566269,-15.333333333333334,18.666666666666668,-0.1557296736873882,3628.9266666669087,633688,6.0,2,mild,Female,22
295,1,5c5b127e8348b50001fcb280,9,2,26.0,pos,15.0,21.0,stimulus-21-5.png,3811.659999992117,35.0,5.0,5.0,0.2135741002980591,-15.333333333333334,18.666666666666668,-0.1557296736873882,3628.9266666669087,633688,6.0,2,mild,Female,22
296,1,5c5b127e8348b50001fcb280,9,3,45.0,pos,15.0,54.0,stimulus-54-1.png,3132.2750000108504,35.0,-9.0,9.0,-0.1823215567939549,-15.333333333333334,18.666666666666668,-0.1557296736873882,3628.9266666669087,633688,6.0,2,mild,Female,22
297,1,5c5b127e8348b50001fcb280,10,1,57.0,neg,20.0,54.0,stimulus-54-0.png,4093.7599999888334,1.0,3.0,3.0,0.0540672212702757,6.0,6.0,0.1720342269556113,4630.348333327372,633688,6.0,2,mild,Female,22
298,1,5c5b127e8348b50001fcb280,10,2,60.0,neg,20.0,54.0,stimulus-54-5.png,6000.849999996717,1.0,6.0,6.0,0.1053605156578258,6.0,6.0,0.1720342269556113,4630.348333327372,633688,6.0,2,mild,Female,22
299,1,5c5b127e8348b50001fcb280,10,3,30.0,neg,20.0,21.0,stimulus-21-9.png,3796.434999996563,1.0,9.0,9.0,0.3566749439387324,6.0,6.0,0.1720342269556113,4630.348333327372,633688,6.0,2,mild,Female,22
300,1,5c5b127e8348b50001fcb280,11,1,45.0,neut,100.0,54.0,stimulus-54-5.png,3918.630000000121,100.0,-9.0,9.0,-0.1823215567939549,-6.666666666666667,6.666666666666667,-0.1327063475947665,4656.541666661117,633688,6.0,2,mild,Female,22
301,1,5c5b127e8348b50001fcb280,11,2,50.0,neut,100.0,54.0,stimulus-54-6.png,5806.329999992158,100.0,-4.0,4.0,-0.0769610411361285,-6.666666666666667,6.666666666666667,-0.1327063475947665,4656.541666661117,633688,6.0,2,mild,Female,22
302,1,5c5b127e8348b50001fcb280,11,3,47.0,neut,100.0,54.0,stimulus-54-4.png,4244.664999991073,100.0,-7.0,7.0,-0.1388364448542161,-6.666666666666667,6.666666666666667,-0.1327063475947665,4656.541666661117,633688,6.0,2,mild,Female,22
303,1,5c5b127e8348b50001fcb280,12,1,55.0,neut,16.0,107.0,stimulus-107-3.png,2658.1900000019227,16.0,-52.0,52.0,-0.6654956492294346,-19.666666666666668,24.33333333333333,-0.2259727230759973,3665.8600000034007,633688,6.0,2,mild,Female,22
304,1,5c5b127e8348b50001fcb280,12,2,28.0,neut,16.0,21.0,stimulus-21-2.png,5018.625000011525,16.0,7.0,7.0,0.2876820724517808,-19.666666666666668,24.33333333333333,-0.2259727230759973,3665.8600000034007,633688,6.0,2,mild,Female,22
305,1,5c5b127e8348b50001fcb280,12,3,40.0,neut,16.0,54.0,stimulus-54-4.png,3320.764999996755,16.0,-14.0,14.0,-0.3001045924503382,-19.666666666666668,24.33333333333333,-0.2259727230759973,3665.8600000034007,633688,6.0,2,mild,Female,22
306,1,5c5b127e8348b50001fcb280,13,1,24.0,pos,11.0,21.0,stimulus-21-4.png,3910.9699999971776,32.0,3.0,3.0,0.1335313926245227,1.0,4.333333333333333,0.0833139148229779,3898.408333329522,633688,6.0,2,mild,Female,22
307,1,5c5b127e8348b50001fcb280,13,2,26.0,pos,11.0,21.0,stimulus-21-1.png,3897.3799999948815,32.0,5.0,5.0,0.2135741002980591,1.0,4.333333333333333,0.0833139148229779,3898.408333329522,633688,6.0,2,mild,Female,22
308,1,5c5b127e8348b50001fcb280,13,3,49.0,pos,11.0,54.0,stimulus-54-3.png,3886.874999996508,32.0,-5.0,5.0,-0.097163748453648,1.0,4.333333333333333,0.0833139148229779,3898.408333329522,633688,6.0,2,mild,Female,22
309,1,5c5b127e8348b50001fcb280,14,1,67.0,neut,14.0,107.0,stimulus-107-4.png,3848.975000000792,13.0,-40.0,40.0,-0.46813621507094,-21.33333333333333,26.0,-0.1741832122649113,4379.091666666985,633688,6.0,2,mild,Female,22
310,1,5c5b127e8348b50001fcb280,14,2,28.0,neut,14.0,21.0,stimulus-21-1.png,5532.080000004498,13.0,7.0,7.0,0.2876820724517808,-21.33333333333333,26.0,-0.1741832122649113,4379.091666666985,633688,6.0,2,mild,Female,22
311,1,5c5b127e8348b50001fcb280,14,3,76.0,neut,14.0,107.0,stimulus-107-5.png,3756.219999995665,13.0,-31.0,31.0,-0.3420954941755747,-21.33333333333333,26.0,-0.1741832122649113,4379.091666666985,633688,6.0,2,mild,Female,22
312,1,5c5b127e8348b50001fcb280,15,1,70.0,pos,17.0,107.0,stimulus-107-1.png,3274.0250000060773,37.0,-37.0,37.0,-0.4243335924125464,-8.333333333333334,16.333333333333332,0.024264395665094,4316.641666669359,633688,6.0,2,mild,Female,22
313,1,5c5b127e8348b50001fcb280,15,2,29.0,pos,17.0,21.0,stimulus-21-2.png,4368.715000004157,37.0,8.0,8.0,0.3227733922630511,-8.333333333333334,16.333333333333332,0.024264395665094,4316.641666669359,633688,6.0,2,mild,Female,22
314,1,5c5b127e8348b50001fcb280,15,3,25.0,pos,17.0,21.0,stimulus-21-3.png,5307.184999997844,37.0,4.0,4.0,0.1743533871447775,-8.333333333333334,16.333333333333332,0.024264395665094,4316.641666669359,633688,6.0,2,mild,Female,22
315,1,5c2d79c9731cd10001b655a6,1,1,22.0,neut,60.0,21.0,stimulus-21-6.png,2255.1249999996803,59.0,1.0,1.0,0.046520015634893,-1.3333333333333333,4.0,0.0065695860614121,2734.8800000011884,633684,2.0,1,minimal,Male,30
316,1,5c2d79c9731cd10001b655a6,1,2,24.0,neut,60.0,21.0,stimulus-21-0.png,2919.5400000025984,59.0,3.0,3.0,0.1335313926245227,-1.3333333333333333,4.0,0.0065695860614121,2734.8800000011884,633684,2.0,1,minimal,Male,30
317,1,5c2d79c9731cd10001b655a6,1,3,46.0,neut,60.0,54.0,stimulus-54-3.png,3029.975000001287,59.0,-8.0,8.0,-0.1603426500751794,-1.3333333333333333,4.0,0.0065695860614121,2734.8800000011884,633684,2.0,1,minimal,Male,30
318,1,5c2d79c9731cd10001b655a6,2,1,39.0,pos,68.0,54.0,stimulus-54-1.png,7400.334999998448,88.0,-15.0,15.0,-0.3254224004346282,-1.6666666666666667,8.333333333333334,0.0319303548805584,4441.259999999602,633684,2.0,1,minimal,Male,30
319,1,5c2d79c9731cd10001b655a6,2,2,24.0,pos,68.0,21.0,stimulus-21-6.png,2453.3249999985856,88.0,3.0,3.0,0.1335313926245227,-1.6666666666666667,8.333333333333334,0.0319303548805584,4441.259999999602,633684,2.0,1,minimal,Male,30
320,1,5c2d79c9731cd10001b655a6,2,3,28.0,pos,68.0,21.0,stimulus-21-4.png,3470.120000001771,88.0,7.0,7.0,0.2876820724517808,-1.6666666666666667,8.333333333333334,0.0319303548805584,4441.259999999602,633684,2.0,1,minimal,Male,30
321,1,5c2d79c9731cd10001b655a6,3,1,50.0,neg,58.0,54.0,stimulus-54-6.png,5184.96000000232,39.0,-4.0,4.0,-0.0769610411361285,-5.0,5.0,-0.0738602435820237,5750.125000001087,633684,2.0,1,minimal,Male,30
322,1,5c2d79c9731cd10001b655a6,3,2,50.0,neg,58.0,54.0,stimulus-54-2.png,6363.270000001648,39.0,-4.0,4.0,-0.0769610411361285,-5.0,5.0,-0.0738602435820237,5750.125000001087,633684,2.0,1,minimal,Male,30
323,1,5c2d79c9731cd10001b655a6,3,3,100.0,neg,58.0,107.0,stimulus-107-1.png,5702.144999999291,39.0,-7.0,7.0,-0.0676586484738139,-5.0,5.0,-0.0738602435820237,5750.125000001087,633684,2.0,1,minimal,Male,30
324,1,5c2d79c9731cd10001b655a6,4,1,60.0,pos,58.0,54.0,stimulus-54-2.png,5384.0149999996365,78.0,6.0,6.0,0.1053605156578258,-6.333333333333333,11.666666666666666,-0.0314899686414906,6051.976666666936,633684,2.0,1,minimal,Male,30
325,1,5c2d79c9731cd10001b655a6,4,2,80.0,pos,58.0,107.0,stimulus-107-2.png,7891.575000001467,78.0,-27.0,27.0,-0.2908021997880246,-6.333333333333333,11.666666666666666,-0.0314899686414906,6051.976666666936,633684,2.0,1,minimal,Male,30
326,1,5c2d79c9731cd10001b655a6,4,3,23.0,pos,58.0,21.0,stimulus-21-0.png,4880.3399999997055,78.0,2.0,2.0,0.0909717782057266,-6.333333333333333,11.666666666666666,-0.0314899686414906,6051.976666666936,633684,2.0,1,minimal,Male,30
327,1,5c2d79c9731cd10001b655a6,5,1,104.0,neut,54.0,107.0,stimulus-107-6.png,9883.269999998449,55.0,-3.0,3.0,-0.0284379353205332,-12.666666666666666,12.666666666666666,-0.1331591885964105,7024.096666665487,633684,2.0,1,minimal,Male,30
328,1,5c2d79c9731cd10001b655a6,5,2,79.0,neut,54.0,107.0,stimulus-107-5.png,6277.3699999997925,55.0,-28.0,28.0,-0.3033809819948843,-12.666666666666666,12.666666666666666,-0.1331591885964105,7024.096666665487,633684,2.0,1,minimal,Male,30
329,1,5c2d79c9731cd10001b655a6,5,3,100.0,neut,54.0,107.0,stimulus-107-9.png,4911.649999998219,55.0,-7.0,7.0,-0.0676586484738139,-12.666666666666666,12.666666666666666,-0.1331591885964105,7024.096666665487,633684,2.0,1,minimal,Male,30
330,1,5c2d79c9731cd10001b655a6,6,1,35.0,neg,55.0,54.0,stimulus-54-9.png,5858.339999998862,35.0,-19.0,19.0,-0.433635985074861,-22.666666666666668,22.666666666666668,-0.3256405067829241,7111.249999999321,633684,2.0,1,minimal,Male,30
331,1,5c2d79c9731cd10001b655a6,6,2,70.0,neg,55.0,107.0,stimulus-107-6.png,9675.735000000685,35.0,-37.0,37.0,-0.4243335924125464,-22.666666666666668,22.666666666666668,-0.3256405067829241,7111.249999999321,633684,2.0,1,minimal,Male,30
332,1,5c2d79c9731cd10001b655a6,6,3,95.0,neg,55.0,107.0,stimulus-107-0.png,5799.674999998417,35.0,-12.0,12.0,-0.118951942861365,-22.666666666666668,22.666666666666668,-0.3256405067829241,7111.249999999321,633684,2.0,1,minimal,Male,30
333,1,5c2d79c9731cd10001b655a6,7,1,45.0,neg,57.0,54.0,stimulus-54-0.png,8983.410000000731,39.0,-9.0,9.0,-0.1823215567939549,-18.33333333333333,19.0,-0.2380952711329557,7103.583333333528,633684,2.0,1,minimal,Male,30
334,1,5c2d79c9731cd10001b655a6,7,2,60.0,neg,57.0,107.0,stimulus-107-0.png,9222.200000000186,39.0,-47.0,47.0,-0.5784842722398054,-18.33333333333333,19.0,-0.2380952711329557,7103.583333333528,633684,2.0,1,minimal,Male,30
335,1,5c2d79c9731cd10001b655a6,7,3,22.0,neg,57.0,21.0,stimulus-21-5.png,3105.1399999996647,39.0,1.0,1.0,0.046520015634893,-18.33333333333333,19.0,-0.2380952711329557,7103.583333333528,633684,2.0,1,minimal,Male,30
336,1,5c2d79c9731cd10001b655a6,8,1,24.0,neg,90.0,21.0,stimulus-21-3.png,1764.2500000002328,72.0,3.0,3.0,0.1335313926245227,-13.666666666666666,15.666666666666666,-0.1100966570983808,4336.8649999999325,633684,2.0,1,minimal,Male,30
337,1,5c2d79c9731cd10001b655a6,8,2,80.0,neg,90.0,107.0,stimulus-107-4.png,5177.949999997509,72.0,-27.0,27.0,-0.2908021997880246,-13.666666666666666,15.666666666666666,-0.1100966570983808,4336.8649999999325,633684,2.0,1,minimal,Male,30
338,1,5c2d79c9731cd10001b655a6,8,3,90.0,neg,90.0,107.0,stimulus-107-2.png,6068.395000002056,72.0,-17.0,17.0,-0.1730191641316407,-13.666666666666666,15.666666666666666,-0.1100966570983808,4336.8649999999325,633684,2.0,1,minimal,Male,30
339,1,5c2d79c9731cd10001b655a6,9,1,70.0,pos,77.0,107.0,stimulus-107-3.png,7962.515000002923,97.0,-37.0,37.0,-0.4243335924125464,-15.0,15.666666666666666,-0.1867117111905361,5611.41166666738,633684,2.0,1,minimal,Male,30
340,1,5c2d79c9731cd10001b655a6,9,2,22.0,pos,77.0,21.0,stimulus-21-5.png,3309.6999999979744,97.0,1.0,1.0,0.046520015634893,-15.0,15.666666666666666,-0.1867117111905361,5611.41166666738,633684,2.0,1,minimal,Male,30
341,1,5c2d79c9731cd10001b655a6,9,3,45.0,pos,77.0,54.0,stimulus-54-1.png,5562.020000001242,97.0,-9.0,9.0,-0.1823215567939549,-15.0,15.666666666666666,-0.1867117111905361,5611.41166666738,633684,2.0,1,minimal,Male,30
342,1,5c2d79c9731cd10001b655a6,10,1,68.0,neg,80.0,54.0,stimulus-54-0.png,9465.6399999985,57.0,14.0,14.0,0.2305236586118324,8.333333333333334,8.333333333333334,0.1489809036807075,6813.579999999376,633684,2.0,1,minimal,Male,30
343,1,5c2d79c9731cd10001b655a6,10,2,64.0,neg,80.0,54.0,stimulus-54-5.png,7838.55499999842,57.0,10.0,10.0,0.1698990367953969,8.333333333333334,8.333333333333334,0.1489809036807075,6813.579999999376,633684,2.0,1,minimal,Male,30
344,1,5c2d79c9731cd10001b655a6,10,3,22.0,neg,80.0,21.0,stimulus-21-9.png,3136.545000001206,57.0,1.0,1.0,0.046520015634893,8.333333333333334,8.333333333333334,0.1489809036807075,6813.579999999376,633684,2.0,1,minimal,Male,30
345,1,5c2d79c9731cd10001b655a6,11,1,80.0,neut,78.0,54.0,stimulus-54-5.png,9480.674999998882,78.0,26.0,26.0,0.3930425881096067,21.0,21.0,0.3270192835222423,7758.8999999995185,633684,2.0,1,minimal,Male,30
346,1,5c2d79c9731cd10001b655a6,11,2,70.0,neut,78.0,54.0,stimulus-54-6.png,6308.570000000997,78.0,16.0,16.0,0.2595111954850848,21.0,21.0,0.3270192835222423,7758.8999999995185,633684,2.0,1,minimal,Male,30
347,1,5c2d79c9731cd10001b655a6,11,3,75.0,neut,78.0,54.0,stimulus-54-4.png,7487.454999998677,78.0,21.0,21.0,0.3285040669720356,21.0,21.0,0.3270192835222423,7758.8999999995185,633684,2.0,1,minimal,Male,30
348,1,5c2d79c9731cd10001b655a6,12,1,80.0,neut,85.0,107.0,stimulus-107-3.png,8914.015000002226,84.0,-27.0,27.0,-0.2908021997880246,-13.333333333333334,14.0,-0.1814622588678232,5904.486666667585,633684,2.0,1,minimal,Male,30
349,1,5c2d79c9731cd10001b655a6,12,2,22.0,neut,85.0,21.0,stimulus-21-2.png,2923.26999999932,84.0,1.0,1.0,0.046520015634893,-13.333333333333334,14.0,-0.1814622588678232,5904.486666667585,633684,2.0,1,minimal,Male,30
350,1,5c2d79c9731cd10001b655a6,12,3,40.0,neut,85.0,54.0,stimulus-54-4.png,5876.175000001211,84.0,-14.0,14.0,-0.3001045924503382,-13.333333333333334,14.0,-0.1814622588678232,5904.486666667585,633684,2.0,1,minimal,Male,30
351,1,5c2d79c9731cd10001b655a6,13,1,22.0,pos,100.0,21.0,stimulus-21-4.png,2851.135000000824,100.0,1.0,1.0,0.046520015634893,-0.6666666666666666,2.0,0.0053596633778858,3972.3033333333055,633684,2.0,1,minimal,Male,30
352,1,5c2d79c9731cd10001b655a6,13,2,22.0,pos,100.0,21.0,stimulus-21-1.png,2537.0650000004102,100.0,1.0,1.0,0.046520015634893,-0.6666666666666666,2.0,0.0053596633778858,3972.3033333333055,633684,2.0,1,minimal,Male,30
353,1,5c2d79c9731cd10001b655a6,13,3,50.0,pos,100.0,54.0,stimulus-54-3.png,6528.709999998681,100.0,-4.0,4.0,-0.0769610411361285,-0.6666666666666666,2.0,0.0053596633778858,3972.3033333333055,633684,2.0,1,minimal,Male,30
354,1,5c2d79c9731cd10001b655a6,14,1,100.0,neut,84.0,107.0,stimulus-107-4.png,7512.410000003059,85.0,-7.0,7.0,-0.0676586484738139,-11.0,11.666666666666666,-0.1039802775423151,4617.436666667345,633684,2.0,1,minimal,Male,30
355,1,5c2d79c9731cd10001b655a6,14,2,22.0,neut,84.0,21.0,stimulus-21-1.png,2233.0650000002934,85.0,1.0,1.0,0.046520015634893,-11.0,11.666666666666666,-0.1039802775423151,4617.436666667345,633684,2.0,1,minimal,Male,30
356,1,5c2d79c9731cd10001b655a6,14,3,80.0,neut,84.0,107.0,stimulus-107-5.png,4106.834999998682,85.0,-27.0,27.0,-0.2908021997880246,-11.0,11.666666666666666,-0.1039802775423151,4617.436666667345,633684,2.0,1,minimal,Male,30
357,1,5c2d79c9731cd10001b655a6,15,1,80.0,pos,100.0,107.0,stimulus-107-1.png,3341.3700000019744,100.0,-27.0,27.0,-0.2908021997880246,-8.333333333333334,9.666666666666666,-0.0659207228394128,2648.821666667005,633684,2.0,1,minimal,Male,30
358,1,5c2d79c9731cd10001b655a6,15,2,22.0,pos,100.0,21.0,stimulus-21-2.png,1672.9599999998466,100.0,1.0,1.0,0.046520015634893,-8.333333333333334,9.666666666666666,-0.0659207228394128,2648.821666667005,633684,2.0,1,minimal,Male,30
359,1,5c2d79c9731cd10001b655a6,15,3,22.0,pos,100.0,21.0,stimulus-21-3.png,2932.1349999991944,100.0,1.0,1.0,0.046520015634893,-8.333333333333334,9.666666666666666,-0.0659207228394128,2648.821666667005,633684,2.0,1,minimal,Male,30
360,1,5c884b29c2ceec001719b1e4,1,1,12.0,neut,71.0,21.0,stimulus-21-6.png,2118.7250004149973,69.0,-9.0,9.0,-0.5596157879354227,-11.0,11.0,-0.4217284961646418,2106.1266666899123,633691,13.0,4,severe,Female,27
361,1,5c884b29c2ceec001719b1e4,1,2,16.0,neut,71.0,21.0,stimulus-21-0.png,2514.5949996076524,69.0,-5.0,5.0,-0.2719337154836418,-11.0,11.0,-0.4217284961646418,2106.1266666899123,633691,13.0,4,severe,Female,27
362,1,5c884b29c2ceec001719b1e4,1,3,35.0,neut,71.0,54.0,stimulus-54-3.png,1685.0600000470874,69.0,-19.0,19.0,-0.433635985074861,-11.0,11.0,-0.4217284961646418,2106.1266666899123,633691,13.0,4,severe,Female,27
363,1,5c884b29c2ceec001719b1e4,2,1,25.0,pos,70.0,54.0,stimulus-54-1.png,2477.934999857098,91.0,-29.0,29.0,-0.770108221696074,-13.666666666666666,13.666666666666666,-0.4810175649794999,2044.5383332359293,633691,13.0,4,severe,Female,27
364,1,5c884b29c2ceec001719b1e4,2,2,15.0,pos,70.0,21.0,stimulus-21-6.png,1991.6900000534952,91.0,-6.0,6.0,-0.3364722366212129,-13.666666666666666,13.666666666666666,-0.4810175649794999,2044.5383332359293,633691,13.0,4,severe,Female,27
365,1,5c884b29c2ceec001719b1e4,2,3,15.0,pos,70.0,21.0,stimulus-21-4.png,1663.9899997971952,91.0,-6.0,6.0,-0.3364722366212129,-13.666666666666666,13.666666666666666,-0.4810175649794999,2044.5383332359293,633691,13.0,4,severe,Female,27
366,1,5c884b29c2ceec001719b1e4,3,1,20.0,neg,75.0,54.0,stimulus-54-6.png,2049.219999928028,56.0,-34.0,34.0,-0.9932517730102836,-45.0,45.0,-0.9901509754561788,1810.949999994288,633691,13.0,4,severe,Female,27
367,1,5c884b29c2ceec001719b1e4,3,2,20.0,neg,75.0,54.0,stimulus-54-2.png,1817.4950000829997,56.0,-34.0,34.0,-0.9932517730102836,-45.0,45.0,-0.9901509754561788,1810.949999994288,633691,13.0,4,severe,Female,27
368,1,5c884b29c2ceec001719b1e4,3,3,40.0,neg,75.0,107.0,stimulus-107-1.png,1566.1349999718368,56.0,-67.0,67.0,-0.9839493803479696,-45.0,45.0,-0.9901509754561788,1810.949999994288,633691,13.0,4,severe,Female,27
369,1,5c884b29c2ceec001719b1e4,4,1,23.0,pos,59.0,54.0,stimulus-54-2.png,2212.6149996183813,78.0,-31.0,31.0,-0.8534898306351248,-39.0,39.0,-0.8949123571234326,1997.9949998669329,633691,13.0,4,severe,Female,27
370,1,5c884b29c2ceec001719b1e4,4,2,30.0,pos,59.0,107.0,stimulus-107-2.png,2055.879999883473,78.0,-77.0,77.0,-1.2716314527997503,-39.0,39.0,-0.8949123571234326,1997.9949998669329,633691,13.0,4,severe,Female,27
371,1,5c884b29c2ceec001719b1e4,4,3,12.0,pos,59.0,21.0,stimulus-21-0.png,1725.4900000989437,78.0,-9.0,9.0,-0.5596157879354227,-39.0,39.0,-0.8949123571234326,1997.9949998669329,633691,13.0,4,severe,Female,27
372,1,5c884b29c2ceec001719b1e4,5,1,35.0,neut,61.0,107.0,stimulus-107-6.png,2502.760000061244,61.0,-72.0,72.0,-1.1174807729724925,-63.66666666666666,63.66666666666666,-0.9148176488992794,2511.2733334923782,633691,13.0,4,severe,Female,27
373,1,5c884b29c2ceec001719b1e4,5,2,45.0,neut,61.0,107.0,stimulus-107-5.png,3017.6450000144537,61.0,-62.0,62.0,-0.8661663446915862,-63.66666666666666,63.66666666666666,-0.9148176488992794,2511.2733334923782,633691,13.0,4,severe,Female,27
374,1,5c884b29c2ceec001719b1e4,5,3,50.0,neut,61.0,107.0,stimulus-107-9.png,2013.4150004014373,61.0,-57.0,57.0,-0.7608058290337598,-63.66666666666666,63.66666666666666,-0.9148176488992794,2511.2733334923782,633691,13.0,4,severe,Female,27
375,1,5c884b29c2ceec001719b1e4,6,1,12.0,neg,65.0,54.0,stimulus-54-9.png,4935.415000189096,43.0,-42.0,42.0,-1.5040773967762742,-70.0,70.0,-1.542386265876239,2996.2866664864123,633691,13.0,4,severe,Female,27
376,1,5c884b29c2ceec001719b1e4,6,2,18.0,neg,65.0,107.0,stimulus-107-6.png,2288.7899996712804,43.0,-89.0,89.0,-1.7824570765657413,-70.0,70.0,-1.542386265876239,2996.2866664864123,633691,13.0,4,severe,Female,27
377,1,5c884b29c2ceec001719b1e4,6,3,28.0,neg,65.0,107.0,stimulus-107-0.png,1764.6549995988607,43.0,-79.0,79.0,-1.340624324286702,-70.0,70.0,-1.542386265876239,2996.2866664864123,633691,13.0,4,severe,Female,27
378,1,5c884b29c2ceec001719b1e4,7,1,15.0,neg,55.0,54.0,stimulus-54-0.png,1995.3399999067187,35.0,-39.0,39.0,-1.2809338454620645,-38.333333333333336,38.333333333333336,-0.9414996712484855,2264.8899999136725,633691,13.0,4,severe,Female,27
379,1,5c884b29c2ceec001719b1e4,7,2,40.0,neg,55.0,107.0,stimulus-107-0.png,1939.209999982268,35.0,-67.0,67.0,-0.9839493803479696,-38.333333333333336,38.333333333333336,-0.9414996712484855,2264.8899999136725,633691,13.0,4,severe,Female,27
380,1,5c884b29c2ceec001719b1e4,7,3,12.0,neg,55.0,21.0,stimulus-21-5.png,2860.1199998520315,35.0,-9.0,9.0,-0.5596157879354227,-38.333333333333336,38.333333333333336,-0.9414996712484855,2264.8899999136725,633691,13.0,4,severe,Female,27
381,1,5c884b29c2ceec001719b1e4,8,1,12.0,neg,50.0,21.0,stimulus-21-3.png,2041.190000250936,29.0,-9.0,9.0,-0.5596157879354227,-46.0,46.0,-0.8032438376583261,2012.2200000720725,633691,13.0,4,severe,Female,27
382,1,5c884b29c2ceec001719b1e4,8,2,40.0,neg,50.0,107.0,stimulus-107-4.png,1761.1750001087785,29.0,-67.0,67.0,-0.9839493803479696,-46.0,46.0,-0.8032438376583261,2012.2200000720725,633691,13.0,4,severe,Female,27
383,1,5c884b29c2ceec001719b1e4,8,3,45.0,neg,50.0,107.0,stimulus-107-2.png,2234.2949998565023,29.0,-62.0,62.0,-0.8661663446915862,-46.0,46.0,-0.8032438376583261,2012.2200000720725,633691,13.0,4,severe,Female,27
384,1,5c884b29c2ceec001719b1e4,9,1,35.0,pos,51.0,107.0,stimulus-107-3.png,2868.9399999566376,70.0,-72.0,72.0,-1.1174807729724925,-35.666666666666664,35.666666666666664,-0.7413537437632597,2924.613333307206,633691,13.0,4,severe,Female,27
385,1,5c884b29c2ceec001719b1e4,9,2,15.0,pos,51.0,21.0,stimulus-21-5.png,3792.694999836385,70.0,-6.0,6.0,-0.3364722366212129,-35.666666666666664,35.666666666666664,-0.7413537437632597,2924.613333307206,633691,13.0,4,severe,Female,27
386,1,5c884b29c2ceec001719b1e4,9,3,25.0,pos,51.0,54.0,stimulus-54-1.png,2112.205000128597,70.0,-29.0,29.0,-0.770108221696074,-35.666666666666664,35.666666666666664,-0.7413537437632597,2924.613333307206,633691,13.0,4,severe,Female,27
387,1,5c884b29c2ceec001719b1e4,10,1,22.0,neg,49.0,54.0,stimulus-54-0.png,3409.8249999806285,31.0,-32.0,32.0,-0.8979415932059585,-23.0,23.0,-0.6817813486811669,2265.966666551928,633691,13.0,4,severe,Female,27
388,1,5c884b29c2ceec001719b1e4,10,2,20.0,neg,49.0,54.0,stimulus-54-5.png,1976.4749999158084,31.0,-34.0,34.0,-0.9932517730102836,-23.0,23.0,-0.6817813486811669,2265.966666551928,633691,13.0,4,severe,Female,27
389,1,5c884b29c2ceec001719b1e4,10,3,18.0,neg,49.0,21.0,stimulus-21-9.png,1411.5999997593462,31.0,-3.0,3.0,-0.1541506798272585,-23.0,23.0,-0.6817813486811669,2265.966666551928,633691,13.0,4,severe,Female,27
390,1,5c884b29c2ceec001719b1e4,11,1,25.0,neut,51.0,54.0,stimulus-54-5.png,2314.869999885559,52.0,-29.0,29.0,-0.770108221696074,-29.0,29.0,-0.770108221696074,2180.518333334476,633691,13.0,4,severe,Female,27
391,1,5c884b29c2ceec001719b1e4,11,2,25.0,neut,51.0,54.0,stimulus-54-6.png,2201.619999948889,52.0,-29.0,29.0,-0.770108221696074,-29.0,29.0,-0.770108221696074,2180.518333334476,633691,13.0,4,severe,Female,27
392,1,5c884b29c2ceec001719b1e4,11,3,25.0,neut,51.0,54.0,stimulus-54-4.png,2025.0650001689792,52.0,-29.0,29.0,-0.770108221696074,-29.0,29.0,-0.770108221696074,2180.518333334476,633691,13.0,4,severe,Female,27
393,1,5c884b29c2ceec001719b1e4,12,1,40.0,neut,52.0,107.0,stimulus-107-3.png,1951.7749999649825,51.0,-67.0,67.0,-0.9839493803479696,-34.0,34.0,-0.6968432795550855,1983.773333330949,633691,13.0,4,severe,Female,27
394,1,5c884b29c2ceec001719b1e4,12,2,15.0,neut,52.0,21.0,stimulus-21-2.png,2246.9549998641014,51.0,-6.0,6.0,-0.3364722366212129,-34.0,34.0,-0.6968432795550855,1983.773333330949,633691,13.0,4,severe,Female,27
395,1,5c884b29c2ceec001719b1e4,12,3,25.0,neut,52.0,54.0,stimulus-54-4.png,1752.5900001637638,51.0,-29.0,29.0,-0.770108221696074,-34.0,34.0,-0.6968432795550855,1983.773333330949,633691,13.0,4,severe,Female,27
396,1,5c884b29c2ceec001719b1e4,13,1,12.0,pos,50.0,21.0,stimulus-21-4.png,2794.315000064671,71.0,-9.0,9.0,-0.5596157879354227,-10.333333333333334,10.333333333333334,-0.3824674842791807,2517.093333415687,633691,13.0,4,severe,Female,27
397,1,5c884b29c2ceec001719b1e4,13,2,18.0,pos,50.0,21.0,stimulus-21-1.png,2014.6400001831355,71.0,-3.0,3.0,-0.1541506798272585,-10.333333333333334,10.333333333333334,-0.3824674842791807,2517.093333415687,633691,13.0,4,severe,Female,27
398,1,5c884b29c2ceec001719b1e4,13,3,35.0,pos,50.0,54.0,stimulus-54-3.png,2742.324999999255,71.0,-19.0,19.0,-0.433635985074861,-10.333333333333334,10.333333333333334,-0.3824674842791807,2517.093333415687,633691,13.0,4,severe,Female,27
399,1,5c884b29c2ceec001719b1e4,14,1,50.0,neut,50.0,107.0,stimulus-107-4.png,4291.870000306517,51.0,-57.0,57.0,-0.7608058290337598,-40.0,40.0,-0.6193612982295775,3466.993333461384,633691,13.0,4,severe,Female,27
400,1,5c884b29c2ceec001719b1e4,14,2,15.0,neut,50.0,21.0,stimulus-21-1.png,3668.3050002902746,51.0,-6.0,6.0,-0.3364722366212129,-40.0,40.0,-0.6193612982295775,3466.993333461384,633691,13.0,4,severe,Female,27
401,1,5c884b29c2ceec001719b1e4,14,3,50.0,neut,50.0,107.0,stimulus-107-5.png,2440.8049997873604,51.0,-57.0,57.0,-0.7608058290337598,-40.0,40.0,-0.6193612982295775,3466.993333461384,633691,13.0,4,severe,Female,27
402,1,5c884b29c2ceec001719b1e4,15,1,30.0,pos,52.0,107.0,stimulus-107-1.png,2589.569999836385,71.0,-77.0,77.0,-1.2716314527997503,-28.666666666666668,28.666666666666668,-0.5874181230827406,2465.998333413153,633691,13.0,4,severe,Female,27
403,1,5c884b29c2ceec001719b1e4,15,2,15.0,pos,52.0,21.0,stimulus-21-2.png,2363.8000003993507,71.0,-6.0,6.0,-0.3364722366212129,-28.666666666666668,28.666666666666668,-0.5874181230827406,2465.998333413153,633691,13.0,4,severe,Female,27
404,1,5c884b29c2ceec001719b1e4,15,3,18.0,pos,52.0,21.0,stimulus-21-3.png,2444.625000003725,71.0,-3.0,3.0,-0.1541506798272585,-28.666666666666668,28.666666666666668,-0.5874181230827406,2465.998333413153,633691,13.0,4,severe,Female,27
405,1,5c5c4b89935f3500016f5c32,1,1,20.0,neut,100.0,21.0,stimulus-21-6.png,1929.0,100.0,-1.0,1.0,-0.0487901641694321,-0.3333333333333333,3.0,0.0162007272797389,1756.3333333333333,633697,1.0,1,minimal,Male,38
406,1,5c5c4b89935f3500016f5c32,1,2,25.0,neut,100.0,21.0,stimulus-21-0.png,1789.0,100.0,4.0,4.0,0.1743533871447775,-0.3333333333333333,3.0,0.0162007272797389,1756.3333333333333,633697,1.0,1,minimal,Male,38
407,1,5c5c4b89935f3500016f5c32,1,3,50.0,neut,100.0,54.0,stimulus-54-3.png,1551.0,100.0,-4.0,4.0,-0.0769610411361285,-0.3333333333333333,3.0,0.0162007272797389,1756.3333333333333,633697,1.0,1,minimal,Male,38
408,1,5c5c4b89935f3500016f5c32,2,1,55.0,pos,91.0,54.0,stimulus-54-1.png,1098.0,100.0,1.0,1.0,0.0183491386681966,1.3333333333333333,2.0,0.047970787214514,1362.3333333333333,633697,1.0,1,minimal,Male,38
409,1,5c5c4b89935f3500016f5c32,2,2,20.0,pos,91.0,21.0,stimulus-21-6.png,1573.0,100.0,-1.0,1.0,-0.0487901641694321,1.3333333333333333,2.0,0.047970787214514,1362.3333333333333,633697,1.0,1,minimal,Male,38
410,1,5c5c4b89935f3500016f5c32,2,3,25.0,pos,91.0,21.0,stimulus-21-4.png,1416.0,100.0,4.0,4.0,0.1743533871447775,1.3333333333333333,2.0,0.047970787214514,1362.3333333333333,633697,1.0,1,minimal,Male,38
411,1,5c5c4b89935f3500016f5c32,3,1,45.0,neg,95.0,54.0,stimulus-54-6.png,1197.0,74.0,-9.0,9.0,-0.1823215567939549,-13.333333333333334,14.0,-0.1731043796837846,1747.3333333333333,633697,1.0,1,minimal,Male,38
412,1,5c5c4b89935f3500016f5c32,3,2,55.0,neg,95.0,54.0,stimulus-54-2.png,2865.0,74.0,1.0,1.0,0.0183491386681966,-13.333333333333334,14.0,-0.1731043796837846,1747.3333333333333,633697,1.0,1,minimal,Male,38
413,1,5c5c4b89935f3500016f5c32,3,3,75.0,neg,95.0,107.0,stimulus-107-1.png,1180.0,74.0,-32.0,32.0,-0.3553407209255956,-13.333333333333334,14.0,-0.1731043796837846,1747.3333333333333,633697,1.0,1,minimal,Male,38
414,1,5c5c4b89935f3500016f5c32,4,1,45.0,pos,90.0,54.0,stimulus-54-2.png,1196.0,100.0,-9.0,9.0,-0.1823215567939549,-16.0,18.0,-0.1824105762452337,2249.0,633697,1.0,1,minimal,Male,38
415,1,5c5c4b89935f3500016f5c32,4,2,65.0,pos,90.0,107.0,stimulus-107-2.png,1387.0,100.0,-42.0,42.0,-0.498441564566269,-16.0,18.0,-0.1824105762452337,2249.0,633697,1.0,1,minimal,Male,38
416,1,5c5c4b89935f3500016f5c32,4,3,24.0,pos,90.0,21.0,stimulus-21-0.png,4164.0,100.0,3.0,3.0,0.1335313926245227,-16.0,18.0,-0.1824105762452337,2249.0,633697,1.0,1,minimal,Male,38
417,1,5c5c4b89935f3500016f5c32,5,1,85.0,neut,88.0,107.0,stimulus-107-6.png,1187.0,87.0,-22.0,22.0,-0.2301775779715891,-22.666666666666668,22.666666666666668,-0.2382562344592133,1291.0,633697,1.0,1,minimal,Male,38
418,1,5c5c4b89935f3500016f5c32,5,2,86.0,neut,88.0,107.0,stimulus-107-5.png,1332.0,87.0,-21.0,21.0,-0.2184815382083984,-22.666666666666668,22.666666666666668,-0.2382562344592133,1291.0,633697,1.0,1,minimal,Male,38
419,1,5c5c4b89935f3500016f5c32,5,3,82.0,neut,88.0,107.0,stimulus-107-9.png,1354.0,87.0,-25.0,25.0,-0.2661095871976524,-22.666666666666668,22.666666666666668,-0.2382562344592133,1291.0,633697,1.0,1,minimal,Male,38
420,1,5c5c4b89935f3500016f5c32,6,1,35.0,neg,95.0,54.0,stimulus-54-9.png,961.0,74.0,-19.0,19.0,-0.433635985074861,-31.0,31.0,-0.4291394235222419,1082.0,633697,1.0,1,minimal,Male,38
421,1,5c5c4b89935f3500016f5c32,6,2,65.0,neg,95.0,107.0,stimulus-107-6.png,989.0,74.0,-42.0,42.0,-0.498441564566269,-31.0,31.0,-0.4291394235222419,1082.0,633697,1.0,1,minimal,Male,38
422,1,5c5c4b89935f3500016f5c32,6,3,75.0,neg,95.0,107.0,stimulus-107-0.png,1296.0,74.0,-32.0,32.0,-0.3553407209255956,-31.0,31.0,-0.4291394235222419,1082.0,633697,1.0,1,minimal,Male,38
423,1,5c5c4b89935f3500016f5c32,7,1,40.0,neg,92.0,54.0,stimulus-54-0.png,2014.0,71.0,-14.0,14.0,-0.3001045924503382,-20.666666666666668,20.666666666666668,-0.3783394645459401,2149.0,633697,1.0,1,minimal,Male,38
424,1,5c5c4b89935f3500016f5c32,7,2,65.0,neg,92.0,107.0,stimulus-107-0.png,2835.0,71.0,-42.0,42.0,-0.498441564566269,-20.666666666666668,20.666666666666668,-0.3783394645459401,2149.0,633697,1.0,1,minimal,Male,38
425,1,5c5c4b89935f3500016f5c32,7,3,15.0,neg,92.0,21.0,stimulus-21-5.png,1598.0,71.0,-6.0,6.0,-0.3364722366212129,-20.666666666666668,20.666666666666668,-0.3783394645459401,2149.0,633697,1.0,1,minimal,Male,38
426,1,5c5c4b89935f3500016f5c32,8,1,14.0,neg,85.0,21.0,stimulus-21-3.png,1757.0,67.0,-7.0,7.0,-0.4054651081081646,-32.333333333333336,32.333333333333336,-0.5032276957340818,2599.333333333333,633697,1.0,1,minimal,Male,38
427,1,5c5c4b89935f3500016f5c32,8,2,55.0,neg,85.0,107.0,stimulus-107-4.png,1431.0,67.0,-52.0,52.0,-0.6654956492294346,-32.333333333333336,32.333333333333336,-0.5032276957340818,2599.333333333333,633697,1.0,1,minimal,Male,38
428,1,5c5c4b89935f3500016f5c32,8,3,69.0,neg,85.0,107.0,stimulus-107-2.png,4610.0,67.0,-38.0,38.0,-0.4387223298646461,-32.333333333333336,32.333333333333336,-0.5032276957340818,2599.333333333333,633697,1.0,1,minimal,Male,38
429,1,5c5c4b89935f3500016f5c32,9,1,65.0,pos,93.0,107.0,stimulus-107-3.png,2004.0,100.0,-42.0,42.0,-0.498441564566269,-19.0,19.0,-0.2824454403953464,1754.3333333333333,633697,1.0,1,minimal,Male,38
430,1,5c5c4b89935f3500016f5c32,9,2,20.0,pos,93.0,21.0,stimulus-21-5.png,2167.0,100.0,-1.0,1.0,-0.0487901641694321,-19.0,19.0,-0.2824454403953464,1754.3333333333333,633697,1.0,1,minimal,Male,38
431,1,5c5c4b89935f3500016f5c32,9,3,40.0,pos,93.0,54.0,stimulus-54-1.png,1092.0,100.0,-14.0,14.0,-0.3001045924503382,-19.0,19.0,-0.2824454403953464,1754.3333333333333,633697,1.0,1,minimal,Male,38
432,1,5c5c4b89935f3500016f5c32,10,1,40.0,neg,100.0,54.0,stimulus-54-0.png,1602.0,78.0,-14.0,14.0,-0.3001045924503382,-6.333333333333333,7.0,-0.2060758968011181,1315.6666666666667,633697,1.0,1,minimal,Male,38
433,1,5c5c4b89935f3500016f5c32,10,2,55.0,neg,100.0,54.0,stimulus-54-5.png,1103.0,78.0,1.0,1.0,0.0183491386681966,-6.333333333333333,7.0,-0.2060758968011181,1315.6666666666667,633697,1.0,1,minimal,Male,38
434,1,5c5c4b89935f3500016f5c32,10,3,15.0,neg,100.0,21.0,stimulus-21-9.png,1242.0,78.0,-6.0,6.0,-0.3364722366212129,-6.333333333333333,7.0,-0.2060758968011181,1315.6666666666667,633697,1.0,1,minimal,Male,38
435,1,5c5c4b89935f3500016f5c32,11,1,40.0,neut,90.0,54.0,stimulus-54-5.png,717.0,90.0,-14.0,14.0,-0.3001045924503382,-15.666666666666666,15.666666666666666,-0.3446150566585125,797.6666666666666,633697,1.0,1,minimal,Male,38
436,1,5c5c4b89935f3500016f5c32,11,2,40.0,neut,90.0,54.0,stimulus-54-6.png,933.0,90.0,-14.0,14.0,-0.3001045924503382,-15.666666666666666,15.666666666666666,-0.3446150566585125,797.6666666666666,633697,1.0,1,minimal,Male,38
437,1,5c5c4b89935f3500016f5c32,11,3,35.0,neut,90.0,54.0,stimulus-54-4.png,743.0,90.0,-19.0,19.0,-0.433635985074861,-15.666666666666666,15.666666666666666,-0.3446150566585125,797.6666666666666,633697,1.0,1,minimal,Male,38
438,1,5c5c4b89935f3500016f5c32,12,1,65.0,neut,90.0,107.0,stimulus-107-3.png,1191.0,90.0,-42.0,42.0,-0.498441564566269,-19.0,21.666666666666668,-0.2525747208321174,934.3333333333334,633697,1.0,1,minimal,Male,38
439,1,5c5c4b89935f3500016f5c32,12,2,25.0,neut,90.0,21.0,stimulus-21-2.png,881.0,90.0,4.0,4.0,0.1743533871447775,-19.0,21.666666666666668,-0.2525747208321174,934.3333333333334,633697,1.0,1,minimal,Male,38
440,1,5c5c4b89935f3500016f5c32,12,3,35.0,neut,90.0,54.0,stimulus-54-4.png,731.0,90.0,-19.0,19.0,-0.433635985074861,-19.0,21.666666666666668,-0.2525747208321174,934.3333333333334,633697,1.0,1,minimal,Male,38
441,1,5c5c4b89935f3500016f5c32,13,1,20.0,pos,100.0,21.0,stimulus-21-4.png,1022.0,100.0,-1.0,1.0,-0.0487901641694321,-7.0,7.0,-0.2284556644136611,921.3333333333334,633697,1.0,1,minimal,Male,38
442,1,5c5c4b89935f3500016f5c32,13,2,15.0,pos,100.0,21.0,stimulus-21-1.png,777.0,100.0,-6.0,6.0,-0.3364722366212129,-7.0,7.0,-0.2284556644136611,921.3333333333334,633697,1.0,1,minimal,Male,38
443,1,5c5c4b89935f3500016f5c32,13,3,40.0,pos,100.0,54.0,stimulus-54-3.png,965.0,100.0,-14.0,14.0,-0.3001045924503382,-7.0,7.0,-0.2284556644136611,921.3333333333334,633697,1.0,1,minimal,Male,38
444,1,5c5c4b89935f3500016f5c32,14,1,60.0,neut,90.0,107.0,stimulus-107-4.png,1208.0,90.0,-47.0,47.0,-0.5784842722398054,-34.0,34.0,-0.4660435337654995,1104.6666666666667,633697,1.0,1,minimal,Male,38
445,1,5c5c4b89935f3500016f5c32,14,2,18.0,neut,90.0,21.0,stimulus-21-1.png,1160.0,90.0,-3.0,3.0,-0.1541506798272585,-34.0,34.0,-0.4660435337654995,1104.6666666666667,633697,1.0,1,minimal,Male,38
446,1,5c5c4b89935f3500016f5c32,14,3,55.0,neut,90.0,107.0,stimulus-107-5.png,946.0,90.0,-52.0,52.0,-0.6654956492294346,-34.0,34.0,-0.4660435337654995,1104.6666666666667,633697,1.0,1,minimal,Male,38
447,1,5c5c4b89935f3500016f5c32,15,1,55.0,pos,100.0,107.0,stimulus-107-1.png,691.0,100.0,-52.0,52.0,-0.6654956492294346,-19.666666666666668,19.666666666666668,-0.3502526833400265,853.0,633697,1.0,1,minimal,Male,38
448,1,5c5c4b89935f3500016f5c32,15,2,15.0,pos,100.0,21.0,stimulus-21-2.png,689.0,100.0,-6.0,6.0,-0.3364722366212129,-19.666666666666668,19.666666666666668,-0.3502526833400265,853.0,633697,1.0,1,minimal,Male,38
449,1,5c5c4b89935f3500016f5c32,15,3,20.0,pos,100.0,21.0,stimulus-21-3.png,1179.0,100.0,-1.0,1.0,-0.0487901641694321,-19.666666666666668,19.666666666666668,-0.3502526833400265,853.0,633697,1.0,1,minimal,Male,38
450,1,5aeb1fb2dba5d40001d699d2,1,1,24.0,neut,57.0,21.0,stimulus-21-6.png,3391.155000004801,57.0,3.0,3.0,0.1335313926245227,-4.666666666666667,6.666666666666667,-0.0815115804318424,3268.5966666661748,633699,9.0,3,moderate,Male,21
451,1,5aeb1fb2dba5d40001d699d2,1,2,21.0,neut,57.0,21.0,stimulus-21-0.png,3505.3199999965727,57.0,0.0,0.0,0.0,-4.666666666666667,6.666666666666667,-0.0815115804318424,3268.5966666661748,633699,9.0,3,moderate,Male,21
452,1,5aeb1fb2dba5d40001d699d2,1,3,37.0,neut,57.0,54.0,stimulus-54-3.png,2909.31499999715,57.0,-17.0,17.0,-0.3780661339200502,-4.666666666666667,6.666666666666667,-0.0815115804318424,3268.5966666661748,633699,9.0,3,moderate,Male,21
453,1,5aeb1fb2dba5d40001d699d2,2,1,27.0,pos,68.0,54.0,stimulus-54-1.png,2866.7799999966524,88.0,-27.0,27.0,-0.6931471805599454,-10.333333333333334,10.333333333333334,-0.2986960081855453,3197.3483333276818,633699,9.0,3,moderate,Male,21
454,1,5aeb1fb2dba5d40001d699d2,2,2,18.0,pos,68.0,21.0,stimulus-21-6.png,3538.929999995162,88.0,-3.0,3.0,-0.1541506798272585,-10.333333333333334,10.333333333333334,-0.2986960081855453,3197.3483333276818,633699,9.0,3,moderate,Male,21
455,1,5aeb1fb2dba5d40001d699d2,2,3,20.0,pos,68.0,21.0,stimulus-21-4.png,3186.3349999912325,88.0,-1.0,1.0,-0.0487901641694321,-10.333333333333334,10.333333333333334,-0.2986960081855453,3197.3483333276818,633699,9.0,3,moderate,Male,21
456,1,5aeb1fb2dba5d40001d699d2,3,1,34.0,neg,65.0,54.0,stimulus-54-6.png,2773.824999996577,43.0,-20.0,20.0,-0.4626235219481129,-30.0,30.0,-0.5145788835832433,2992.918333329726,633699,9.0,3,moderate,Male,21
457,1,5aeb1fb2dba5d40001d699d2,3,2,35.0,neg,65.0,54.0,stimulus-54-2.png,3995.159999991301,43.0,-19.0,19.0,-0.433635985074861,-30.0,30.0,-0.5145788835832433,2992.918333329726,633699,9.0,3,moderate,Male,21
458,1,5aeb1fb2dba5d40001d699d2,3,3,56.0,neg,65.0,107.0,stimulus-107-1.png,2209.770000001299,43.0,-51.0,51.0,-0.6474771437267561,-30.0,30.0,-0.5145788835832433,2992.918333329726,633699,9.0,3,moderate,Male,21
459,1,5aeb1fb2dba5d40001d699d2,4,1,67.0,pos,65.0,54.0,stimulus-54-2.png,5230.349999997998,85.0,13.0,13.0,0.2157085728266912,-5.333333333333333,15.333333333333334,-0.0118050477143856,4202.606666668241,633699,9.0,3,moderate,Male,21
460,1,5aeb1fb2dba5d40001d699d2,4,2,76.0,pos,65.0,107.0,stimulus-107-2.png,3052.030000006198,85.0,-31.0,31.0,-0.3420954941755747,-5.333333333333333,15.333333333333334,-0.0118050477143856,4202.606666668241,633699,9.0,3,moderate,Male,21
